period,subperiod,secondsLeft,subject,population,match,matchID,strategy0,target0,payoff,percentChangePerSecond,name,min,max,subperiods,playersInGroup,length
1,0,29,1,1,1,0,0.037193835,0.037193835,58.828472,NaN,practic_1,NaN,NaN,0.0,4.0,30.0
1,0,29,4,1,1,0,0.25694853,0.25694853,60.40101,NaN,practic_1,NaN,NaN,0.0,4.0,30.0
1,0,29,3,1,1,0,0.634508,0.634508,205.2586,NaN,practic_1,NaN,NaN,0.0,4.0,30.0
1,0,29,2,1,1,0,0.3391989,0.3391989,75.511894,NaN,practic_1,NaN,NaN,0.0,4.0,30.0
1,0,29,1,1,1,0,0.037193835,0.037193835,58.828472,NaN,practic_1,NaN,NaN,0.0,4.0,30.0
1,0,29,4,1,1,0,0.25694853,0.25694853,60.40101,NaN,practic_1,NaN,NaN,0.0,4.0,30.0
1,0,29,3,1,1,0,0.634508,0.634508,205.2586,NaN,practic_1,NaN,NaN,0.0,4.0,30.0
1,0,29,2,1,1,0,0.3391989,0.3391989,75.511894,NaN,practic_1,NaN,NaN,0.0,4.0,30.0
1,0,29,4,1,1,0,0.25694853,0.25694853,328.6103,NaN,practic_1,NaN,NaN,0.0,4.0,30.0
1,0,29,3,1,1,0,0.1,0.1,23.79657,NaN,practic_1,NaN,NaN,0.0,4.0,30.0
1,0,29,2,1,1,0,0.1,0.1,23.79657,NaN,practic_1,NaN,NaN,0.0,4.0,30.0
1,0,29,1,1,1,0,0.1,0.1,23.79657,NaN,practic_1,NaN,NaN,0.0,4.0,30.0
1,0,29,1,1,1,0,0.1,0.1,23.79657,NaN,practic_1,NaN,NaN,0.0,4.0,30.0
1,0,29,4,1,1,0,0.25694853,0.25694853,328.6103,NaN,practic_1,NaN,NaN,0.0,4.0,30.0
1,0,29,3,1,1,0,0.1,0.1,23.79657,NaN,practic_1,NaN,NaN,0.0,4.0,30.0
1,0,29,2,1,1,0,0.1,0.1,23.79657,NaN,practic_1,NaN,NaN,0.0,4.0,30.0
1,0,29,4,1,1,0,0.25694853,0.25694853,328.6103,NaN,practic_1,NaN,NaN,0.0,4.0,30.0
1,0,29,3,1,1,0,0.1,0.1,23.79657,NaN,practic_1,NaN,NaN,0.0,4.0,30.0
1,0,29,2,1,1,0,0.1,0.1,23.79657,NaN,practic_1,NaN,NaN,0.0,4.0,30.0
1,0,29,1,1,1,0,0.1,0.1,23.79657,NaN,practic_1,NaN,NaN,0.0,4.0,30.0
1,0,29,4,1,1,0,0.25694853,0.25694853,328.6103,NaN,practic_1,NaN,NaN,0.0,4.0,30.0
1,0,29,3,1,1,0,0.1,0.1,23.79657,NaN,practic_1,NaN,NaN,0.0,4.0,30.0
1,0,29,2,1,1,0,0.1,0.1,23.79657,NaN,practic_1,NaN,NaN,0.0,4.0,30.0
1,0,29,1,1,1,0,0.1,0.1,23.79657,NaN,practic_1,NaN,NaN,0.0,4.0,30.0
1,0,29,4,1,1,0,0.25694853,0.25694853,328.6103,NaN,practic_1,NaN,NaN,0.0,4.0,30.0
1,0,29,3,1,1,0,0.1,0.1,23.79657,NaN,practic_1,NaN,NaN,0.0,4.0,30.0
1,0,29,2,1,1,0,0.1,0.1,23.79657,NaN,practic_1,NaN,NaN,0.0,4.0,30.0
1,0,29,1,1,1,0,0.1,0.1,23.79657,NaN,practic_1,NaN,NaN,0.0,4.0,30.0
1,0,29,4,1,1,0,0.25694853,0.25694853,328.6103,NaN,practic_1,NaN,NaN,0.0,4.0,30.0
1,0,29,3,1,1,0,0.1,0.1,23.79657,NaN,practic_1,NaN,NaN,0.0,4.0,30.0
1,0,29,2,1,1,0,0.1,0.1,23.79657,NaN,practic_1,NaN,NaN,0.0,4.0,30.0
1,0,29,1,1,1,0,0.1,0.1,23.79657,NaN,practic_1,NaN,NaN,0.0,4.0,30.0
1,0,29,4,1,1,0,0.25694853,0.25694853,328.6103,NaN,practic_1,NaN,NaN,0.0,4.0,30.0
1,0,29,3,1,1,0,0.1,0.1,23.79657,NaN,practic_1,NaN,NaN,0.0,4.0,30.0
1,0,29,2,1,1,0,0.1,0.1,23.79657,NaN,practic_1,NaN,NaN,0.0,4.0,30.0
1,0,29,1,1,1,0,0.1,0.1,23.79657,NaN,practic_1,NaN,NaN,0.0,4.0,30.0
1,0,29,4,1,1,0,0.25694853,0.25694853,328.6103,NaN,practic_1,NaN,NaN,0.0,4.0,30.0
1,0,29,3,1,1,0,0.1,0.1,23.79657,NaN,practic_1,NaN,NaN,0.0,4.0,30.0
1,0,29,2,1,1,0,0.1,0.1,23.79657,NaN,practic_1,NaN,NaN,0.0,4.0,30.0
1,0,29,1,1,1,0,0.1,0.1,23.79657,NaN,practic_1,NaN,NaN,0.0,4.0,30.0
1,0,28,4,1,1,0,0.25694853,0.25694853,328.6103,NaN,practic_1,NaN,NaN,0.0,4.0,30.0
1,0,28,3,1,1,0,0.1,0.1,23.79657,NaN,practic_1,NaN,NaN,0.0,4.0,30.0
1,0,28,2,1,1,0,0.1,0.1,23.79657,NaN,practic_1,NaN,NaN,0.0,4.0,30.0
1,0,28,1,1,1,0,0.1,0.1,23.79657,NaN,practic_1,NaN,NaN,0.0,4.0,30.0
1,0,28,4,1,1,0,0.25694853,0.25694853,328.6103,NaN,practic_1,NaN,NaN,0.0,4.0,30.0
1,0,28,3,1,1,0,0.1,0.1,23.79657,NaN,practic_1,NaN,NaN,0.0,4.0,30.0
1,0,28,2,1,1,0,0.1,0.1,23.79657,NaN,practic_1,NaN,NaN,0.0,4.0,30.0
1,0,28,1,1,1,0,0.1,0.1,23.79657,NaN,practic_1,NaN,NaN,0.0,4.0,30.0
1,0,28,4,1,1,0,0.25694853,0.25694853,328.6103,NaN,practic_1,NaN,NaN,0.0,4.0,30.0
1,0,28,3,1,1,0,0.1,0.1,23.79657,NaN,practic_1,NaN,NaN,0.0,4.0,30.0
1,0,28,2,1,1,0,0.1,0.1,23.79657,NaN,practic_1,NaN,NaN,0.0,4.0,30.0
1,0,28,1,1,1,0,0.1,0.1,23.79657,NaN,practic_1,NaN,NaN,0.0,4.0,30.0
1,0,28,1,1,1,0,0.1,0.1,23.79657,NaN,practic_1,NaN,NaN,0.0,4.0,30.0
1,0,28,4,1,1,0,0.25694853,0.25694853,328.6103,NaN,practic_1,NaN,NaN,0.0,4.0,30.0
1,0,28,3,1,1,0,0.1,0.1,23.79657,NaN,practic_1,NaN,NaN,0.0,4.0,30.0
1,0,28,2,1,1,0,0.1,0.1,23.79657,NaN,practic_1,NaN,NaN,0.0,4.0,30.0
1,0,28,1,1,1,0,0.1,0.1,23.79657,NaN,practic_1,NaN,NaN,0.0,4.0,30.0
1,0,28,4,1,1,0,0.25694853,0.25694853,328.6103,NaN,practic_1,NaN,NaN,0.0,4.0,30.0
1,0,28,3,1,1,0,0.1,0.1,23.79657,NaN,practic_1,NaN,NaN,0.0,4.0,30.0
1,0,28,2,1,1,0,0.1,0.1,23.79657,NaN,practic_1,NaN,NaN,0.0,4.0,30.0
1,0,28,4,1,1,0,0.25694853,0.25694853,328.6103,NaN,practic_1,NaN,NaN,0.0,4.0,30.0
1,0,28,3,1,1,0,0.1,0.1,23.79657,NaN,practic_1,NaN,NaN,0.0,4.0,30.0
1,0,28,2,1,1,0,0.1,0.1,23.79657,NaN,practic_1,NaN,NaN,0.0,4.0,30.0
1,0,28,1,1,1,0,0.1,0.1,23.79657,NaN,practic_1,NaN,NaN,0.0,4.0,30.0
1,0,28,4,1,1,0,0.25694853,0.25694853,328.6103,NaN,practic_1,NaN,NaN,0.0,4.0,30.0
1,0,28,3,1,1,0,0.1,0.1,23.79657,NaN,practic_1,NaN,NaN,0.0,4.0,30.0
1,0,28,2,1,1,0,0.1,0.1,23.79657,NaN,practic_1,NaN,NaN,0.0,4.0,30.0
1,0,28,1,1,1,0,0.1,0.1,23.79657,NaN,practic_1,NaN,NaN,0.0,4.0,30.0
1,0,28,4,1,1,0,0.25694853,0.25694853,328.6103,NaN,practic_1,NaN,NaN,0.0,4.0,30.0
1,0,28,3,1,1,0,0.1,0.1,23.79657,NaN,practic_1,NaN,NaN,0.0,4.0,30.0
1,0,28,2,1,1,0,0.1,0.1,23.79657,NaN,practic_1,NaN,NaN,0.0,4.0,30.0
1,0,28,1,1,1,0,0.1,0.1,23.79657,NaN,practic_1,NaN,NaN,0.0,4.0,30.0
1,0,28,4,1,1,0,0.25694853,0.25694853,328.6103,NaN,practic_1,NaN,NaN,0.0,4.0,30.0
1,0,28,3,1,1,0,0.1,0.1,23.79657,NaN,practic_1,NaN,NaN,0.0,4.0,30.0
1,0,28,2,1,1,0,0.1,0.1,23.79657,NaN,practic_1,NaN,NaN,0.0,4.0,30.0
1,0,28,1,1,1,0,0.1,0.1,23.79657,NaN,practic_1,NaN,NaN,0.0,4.0,30.0
1,0,28,4,1,1,0,0.25694853,0.25694853,328.6103,NaN,practic_1,NaN,NaN,0.0,4.0,30.0
1,0,28,3,1,1,0,0.1,0.1,23.79657,NaN,practic_1,NaN,NaN,0.0,4.0,30.0
1,0,28,2,1,1,0,0.1,0.1,23.79657,NaN,practic_1,NaN,NaN,0.0,4.0,30.0
1,0,28,1,1,1,0,0.1,0.1,23.79657,NaN,practic_1,NaN,NaN,0.0,4.0,30.0
1,0,27,4,1,1,0,0.25694853,0.25694853,328.6103,NaN,practic_1,NaN,NaN,0.0,4.0,30.0
1,0,27,3,1,1,0,0.1,0.1,23.79657,NaN,practic_1,NaN,NaN,0.0,4.0,30.0
1,0,27,2,1,1,0,0.1,0.1,23.79657,NaN,practic_1,NaN,NaN,0.0,4.0,30.0
1,0,27,1,1,1,0,0.1,0.1,23.79657,NaN,practic_1,NaN,NaN,0.0,4.0,30.0
1,0,27,4,1,1,0,0.25694853,0.25694853,328.6103,NaN,practic_1,NaN,NaN,0.0,4.0,30.0
1,0,27,3,1,1,0,0.1,0.1,23.79657,NaN,practic_1,NaN,NaN,0.0,4.0,30.0
1,0,27,2,1,1,0,0.1,0.1,23.79657,NaN,practic_1,NaN,NaN,0.0,4.0,30.0
1,0,27,1,1,1,0,0.1,0.1,23.79657,NaN,practic_1,NaN,NaN,0.0,4.0,30.0
1,0,27,4,1,1,0,0.25694853,0.25694853,328.6103,NaN,practic_1,NaN,NaN,0.0,4.0,30.0
1,0,27,3,1,1,0,0.1,0.1,23.79657,NaN,practic_1,NaN,NaN,0.0,4.0,30.0
1,0,27,2,1,1,0,0.1,0.1,23.79657,NaN,practic_1,NaN,NaN,0.0,4.0,30.0
1,0,27,1,1,1,0,0.1,0.1,23.79657,NaN,practic_1,NaN,NaN,0.0,4.0,30.0
1,0,27,4,1,1,0,0.25694853,0.25694853,328.6103,NaN,practic_1,NaN,NaN,0.0,4.0,30.0
1,0,27,3,1,1,0,0.1,0.1,23.79657,NaN,practic_1,NaN,NaN,0.0,4.0,30.0
1,0,27,2,1,1,0,0.1,0.1,23.79657,NaN,practic_1,NaN,NaN,0.0,4.0,30.0
1,0,27,1,1,1,0,0.1,0.1,23.79657,NaN,practic_1,NaN,NaN,0.0,4.0,30.0
1,0,27,4,1,1,0,0.25694853,0.25694853,328.6103,NaN,practic_1,NaN,NaN,0.0,4.0,30.0
1,0,27,3,1,1,0,0.1,0.1,23.79657,NaN,practic_1,NaN,NaN,0.0,4.0,30.0
1,0,27,2,1,1,0,0.1,0.1,23.79657,NaN,practic_1,NaN,NaN,0.0,4.0,30.0
1,0,27,1,1,1,0,0.1,0.1,23.79657,NaN,practic_1,NaN,NaN,0.0,4.0,30.0
1,0,27,4,1,1,0,0.25694853,0.25694853,328.6103,NaN,practic_1,NaN,NaN,0.0,4.0,30.0
1,0,27,3,1,1,0,0.1,0.1,23.79657,NaN,practic_1,NaN,NaN,0.0,4.0,30.0
1,0,27,2,1,1,0,0.1,0.1,23.79657,NaN,practic_1,NaN,NaN,0.0,4.0,30.0
1,0,27,1,1,1,0,0.1,0.1,23.79657,NaN,practic_1,NaN,NaN,0.0,4.0,30.0
1,0,27,4,1,1,0,0.25694853,0.25694853,328.6103,NaN,practic_1,NaN,NaN,0.0,4.0,30.0
1,0,27,3,1,1,0,0.1,0.1,23.79657,NaN,practic_1,NaN,NaN,0.0,4.0,30.0
1,0,27,2,1,1,0,0.1,0.1,23.79657,NaN,practic_1,NaN,NaN,0.0,4.0,30.0
1,0,27,1,1,1,0,0.1,0.1,23.79657,NaN,practic_1,NaN,NaN,0.0,4.0,30.0
1,0,27,4,1,1,0,0.25694853,0.25694853,328.6103,NaN,practic_1,NaN,NaN,0.0,4.0,30.0
1,0,27,3,1,1,0,0.1,0.1,23.79657,NaN,practic_1,NaN,NaN,0.0,4.0,30.0
1,0,27,2,1,1,0,0.1,0.1,23.79657,NaN,practic_1,NaN,NaN,0.0,4.0,30.0
1,0,27,1,1,1,0,0.1,0.1,23.79657,NaN,practic_1,NaN,NaN,0.0,4.0,30.0
1,0,27,4,1,1,0,0.25694853,0.25694853,328.6103,NaN,practic_1,NaN,NaN,0.0,4.0,30.0
1,0,27,3,1,1,0,0.1,0.1,23.79657,NaN,practic_1,NaN,NaN,0.0,4.0,30.0
1,0,27,2,1,1,0,0.1,0.1,23.79657,NaN,practic_1,NaN,NaN,0.0,4.0,30.0
1,0,27,1,1,1,0,0.1,0.1,23.79657,NaN,practic_1,NaN,NaN,0.0,4.0,30.0
1,0,27,4,1,1,0,0.25694853,0.25694853,328.6103,NaN,practic_1,NaN,NaN,0.0,4.0,30.0
1,0,27,3,1,1,0,0.1,0.1,23.79657,NaN,practic_1,NaN,NaN,0.0,4.0,30.0
1,0,27,2,1,1,0,0.1,0.1,23.79657,NaN,practic_1,NaN,NaN,0.0,4.0,30.0
1,0,27,1,1,1,0,0.1,0.1,23.79657,NaN,practic_1,NaN,NaN,0.0,4.0,30.0
1,0,26,4,1,1,0,0.25694853,0.25694853,328.6103,NaN,practic_1,NaN,NaN,0.0,4.0,30.0
1,0,26,3,1,1,0,0.1,0.1,23.79657,NaN,practic_1,NaN,NaN,0.0,4.0,30.0
1,0,26,2,1,1,0,0.1,0.1,23.79657,NaN,practic_1,NaN,NaN,0.0,4.0,30.0
1,0,26,1,1,1,0,0.1,0.1,23.79657,NaN,practic_1,NaN,NaN,0.0,4.0,30.0
1,0,26,4,1,1,0,0.25694853,0.25694853,328.6103,NaN,practic_1,NaN,NaN,0.0,4.0,30.0
1,0,26,3,1,1,0,0.1,0.1,23.79657,NaN,practic_1,NaN,NaN,0.0,4.0,30.0
1,0,26,2,1,1,0,0.1,0.1,23.79657,NaN,practic_1,NaN,NaN,0.0,4.0,30.0
1,0,26,1,1,1,0,0.1,0.1,23.79657,NaN,practic_1,NaN,NaN,0.0,4.0,30.0
1,0,26,4,1,1,0,0.25694853,0.25694853,328.6103,NaN,practic_1,NaN,NaN,0.0,4.0,30.0
1,0,26,3,1,1,0,0.1,0.1,23.79657,NaN,practic_1,NaN,NaN,0.0,4.0,30.0
1,0,26,2,1,1,0,0.1,0.1,23.79657,NaN,practic_1,NaN,NaN,0.0,4.0,30.0
1,0,26,1,1,1,0,0.1,0.1,23.79657,NaN,practic_1,NaN,NaN,0.0,4.0,30.0
1,0,26,4,1,1,0,0.25694853,0.25694853,328.6103,NaN,practic_1,NaN,NaN,0.0,4.0,30.0
1,0,26,3,1,1,0,0.1,0.1,23.79657,NaN,practic_1,NaN,NaN,0.0,4.0,30.0
1,0,26,2,1,1,0,0.1,0.1,23.79657,NaN,practic_1,NaN,NaN,0.0,4.0,30.0
1,0,26,1,1,1,0,0.1,0.1,23.79657,NaN,practic_1,NaN,NaN,0.0,4.0,30.0
1,0,26,4,1,1,0,0.25694853,0.25694853,328.6103,NaN,practic_1,NaN,NaN,0.0,4.0,30.0
1,0,26,3,1,1,0,0.1,0.1,23.79657,NaN,practic_1,NaN,NaN,0.0,4.0,30.0
1,0,26,2,1,1,0,0.1,0.1,23.79657,NaN,practic_1,NaN,NaN,0.0,4.0,30.0
1,0,26,1,1,1,0,0.1,0.1,23.79657,NaN,practic_1,NaN,NaN,0.0,4.0,30.0
1,0,26,4,1,1,0,0.25694853,0.25694853,328.6103,NaN,practic_1,NaN,NaN,0.0,4.0,30.0
1,0,26,3,1,1,0,0.1,0.1,23.79657,NaN,practic_1,NaN,NaN,0.0,4.0,30.0
1,0,26,2,1,1,0,0.1,0.1,23.79657,NaN,practic_1,NaN,NaN,0.0,4.0,30.0
1,0,26,1,1,1,0,0.1,0.1,23.79657,NaN,practic_1,NaN,NaN,0.0,4.0,30.0
1,0,26,4,1,1,0,0.25694853,0.25694853,328.6103,NaN,practic_1,NaN,NaN,0.0,4.0,30.0
1,0,26,3,1,1,0,0.1,0.1,23.79657,NaN,practic_1,NaN,NaN,0.0,4.0,30.0
1,0,26,2,1,1,0,0.1,0.1,23.79657,NaN,practic_1,NaN,NaN,0.0,4.0,30.0
1,0,26,1,1,1,0,0.1,0.1,23.79657,NaN,practic_1,NaN,NaN,0.0,4.0,30.0
1,0,26,4,1,1,0,0.25694853,0.25694853,328.6103,NaN,practic_1,NaN,NaN,0.0,4.0,30.0
1,0,26,3,1,1,0,0.1,0.1,23.79657,NaN,practic_1,NaN,NaN,0.0,4.0,30.0
1,0,26,2,1,1,0,0.1,0.1,23.79657,NaN,practic_1,NaN,NaN,0.0,4.0,30.0
1,0,26,1,1,1,0,0.1,0.1,23.79657,NaN,practic_1,NaN,NaN,0.0,4.0,30.0
1,0,26,4,1,1,0,0.25694853,0.25694853,328.6103,NaN,practic_1,NaN,NaN,0.0,4.0,30.0
1,0,26,3,1,1,0,0.1,0.1,23.79657,NaN,practic_1,NaN,NaN,0.0,4.0,30.0
1,0,26,2,1,1,0,0.1,0.1,23.79657,NaN,practic_1,NaN,NaN,0.0,4.0,30.0
1,0,26,1,1,1,0,0.1,0.1,23.79657,NaN,practic_1,NaN,NaN,0.0,4.0,30.0
1,0,26,4,1,1,0,0.25694853,0.25694853,328.6103,NaN,practic_1,NaN,NaN,0.0,4.0,30.0
1,0,26,3,1,1,0,0.1,0.1,23.79657,NaN,practic_1,NaN,NaN,0.0,4.0,30.0
1,0,26,2,1,1,0,0.1,0.1,23.79657,NaN,practic_1,NaN,NaN,0.0,4.0,30.0
1,0,26,1,1,1,0,0.1,0.1,23.79657,NaN,practic_1,NaN,NaN,0.0,4.0,30.0
1,0,25,4,1,1,0,0.25694853,0.25694853,328.6103,NaN,practic_1,NaN,NaN,0.0,4.0,30.0
1,0,25,3,1,1,0,0.1,0.1,23.79657,NaN,practic_1,NaN,NaN,0.0,4.0,30.0
1,0,25,2,1,1,0,0.1,0.1,23.79657,NaN,practic_1,NaN,NaN,0.0,4.0,30.0
1,0,25,1,1,1,0,0.1,0.1,23.79657,NaN,practic_1,NaN,NaN,0.0,4.0,30.0
1,0,25,4,1,1,0,0.25694853,0.25694853,328.6103,NaN,practic_1,NaN,NaN,0.0,4.0,30.0
1,0,25,3,1,1,0,0.1,0.1,23.79657,NaN,practic_1,NaN,NaN,0.0,4.0,30.0
1,0,25,2,1,1,0,0.1,0.1,23.79657,NaN,practic_1,NaN,NaN,0.0,4.0,30.0
1,0,25,1,1,1,0,0.1,0.1,23.79657,NaN,practic_1,NaN,NaN,0.0,4.0,30.0
1,0,25,4,1,1,0,0.25694853,0.25694853,328.6103,NaN,practic_1,NaN,NaN,0.0,4.0,30.0
1,0,25,3,1,1,0,0.1,0.1,23.79657,NaN,practic_1,NaN,NaN,0.0,4.0,30.0
1,0,25,2,1,1,0,0.1,0.1,23.79657,NaN,practic_1,NaN,NaN,0.0,4.0,30.0
1,0,25,1,1,1,0,0.1,0.1,23.79657,NaN,practic_1,NaN,NaN,0.0,4.0,30.0
1,0,25,4,1,1,0,0.25694853,0.25694853,328.6103,NaN,practic_1,NaN,NaN,0.0,4.0,30.0
1,0,25,3,1,1,0,0.1,0.1,23.79657,NaN,practic_1,NaN,NaN,0.0,4.0,30.0
1,0,25,2,1,1,0,0.1,0.1,23.79657,NaN,practic_1,NaN,NaN,0.0,4.0,30.0
1,0,25,1,1,1,0,0.1,0.1,23.79657,NaN,practic_1,NaN,NaN,0.0,4.0,30.0
1,0,25,4,1,1,0,0.25694853,0.25694853,328.6103,NaN,practic_1,NaN,NaN,0.0,4.0,30.0
1,0,25,3,1,1,0,0.1,0.1,23.79657,NaN,practic_1,NaN,NaN,0.0,4.0,30.0
1,0,25,2,1,1,0,0.1,0.1,23.79657,NaN,practic_1,NaN,NaN,0.0,4.0,30.0
1,0,25,1,1,1,0,0.1,0.1,23.79657,NaN,practic_1,NaN,NaN,0.0,4.0,30.0
1,0,25,4,1,1,0,0.25694853,0.25694853,328.6103,NaN,practic_1,NaN,NaN,0.0,4.0,30.0
1,0,25,3,1,1,0,0.1,0.1,23.79657,NaN,practic_1,NaN,NaN,0.0,4.0,30.0
1,0,25,2,1,1,0,0.1,0.1,23.79657,NaN,practic_1,NaN,NaN,0.0,4.0,30.0
1,0,25,1,1,1,0,0.1,0.1,23.79657,NaN,practic_1,NaN,NaN,0.0,4.0,30.0
1,0,25,4,1,1,0,0.25694853,0.25694853,328.6103,NaN,practic_1,NaN,NaN,0.0,4.0,30.0
1,0,25,3,1,1,0,0.1,0.1,23.79657,NaN,practic_1,NaN,NaN,0.0,4.0,30.0
1,0,25,2,1,1,0,0.1,0.1,23.79657,NaN,practic_1,NaN,NaN,0.0,4.0,30.0
1,0,25,1,1,1,0,0.1,0.1,23.79657,NaN,practic_1,NaN,NaN,0.0,4.0,30.0
1,0,25,4,1,1,0,0.25694853,0.25694853,328.6103,NaN,practic_1,NaN,NaN,0.0,4.0,30.0
1,0,25,3,1,1,0,0.1,0.1,23.79657,NaN,practic_1,NaN,NaN,0.0,4.0,30.0
1,0,25,2,1,1,0,0.1,0.1,23.79657,NaN,practic_1,NaN,NaN,0.0,4.0,30.0
1,0,25,1,1,1,0,0.1,0.1,23.79657,NaN,practic_1,NaN,NaN,0.0,4.0,30.0
1,0,25,4,1,1,0,0.25694853,0.25694853,328.6103,NaN,practic_1,NaN,NaN,0.0,4.0,30.0
1,0,25,3,1,1,0,0.1,0.1,23.79657,NaN,practic_1,NaN,NaN,0.0,4.0,30.0
1,0,25,2,1,1,0,0.1,0.1,23.79657,NaN,practic_1,NaN,NaN,0.0,4.0,30.0
1,0,25,1,1,1,0,0.1,0.1,23.79657,NaN,practic_1,NaN,NaN,0.0,4.0,30.0
1,0,25,4,1,1,0,0.25694853,0.25694853,328.6103,NaN,practic_1,NaN,NaN,0.0,4.0,30.0
1,0,25,3,1,1,0,0.1,0.1,23.79657,NaN,practic_1,NaN,NaN,0.0,4.0,30.0
1,0,25,2,1,1,0,0.1,0.1,23.79657,NaN,practic_1,NaN,NaN,0.0,4.0,30.0
1,0,25,1,1,1,0,0.1,0.1,23.79657,NaN,practic_1,NaN,NaN,0.0,4.0,30.0
1,0,24,4,1,1,0,0.25694853,0.25694853,328.6103,NaN,practic_1,NaN,NaN,0.0,4.0,30.0
1,0,24,3,1,1,0,0.1,0.1,23.79657,NaN,practic_1,NaN,NaN,0.0,4.0,30.0
1,0,24,2,1,1,0,0.1,0.1,23.79657,NaN,practic_1,NaN,NaN,0.0,4.0,30.0
1,0,24,1,1,1,0,0.1,0.1,23.79657,NaN,practic_1,NaN,NaN,0.0,4.0,30.0
1,0,24,4,1,1,0,0.25694853,0.25694853,328.6103,NaN,practic_1,NaN,NaN,0.0,4.0,30.0
1,0,24,3,1,1,0,0.1,0.1,23.79657,NaN,practic_1,NaN,NaN,0.0,4.0,30.0
1,0,24,2,1,1,0,0.1,0.1,23.79657,NaN,practic_1,NaN,NaN,0.0,4.0,30.0
1,0,24,1,1,1,0,0.1,0.1,23.79657,NaN,practic_1,NaN,NaN,0.0,4.0,30.0
1,0,24,4,1,1,0,0.25694853,0.25694853,328.6103,NaN,practic_1,NaN,NaN,0.0,4.0,30.0
1,0,24,3,1,1,0,0.1,0.1,23.79657,NaN,practic_1,NaN,NaN,0.0,4.0,30.0
1,0,24,2,1,1,0,0.1,0.1,23.79657,NaN,practic_1,NaN,NaN,0.0,4.0,30.0
1,0,24,1,1,1,0,0.1,0.1,23.79657,NaN,practic_1,NaN,NaN,0.0,4.0,30.0
1,0,24,1,1,1,0,0.1,0.1,36.296295,NaN,practic_1,NaN,NaN,0.0,4.0,30.0
1,0,24,4,1,1,0,0.44444445,0.44444445,291.11115,NaN,practic_1,NaN,NaN,0.0,4.0,30.0
1,0,24,3,1,1,0,0.1,0.1,36.296295,NaN,practic_1,NaN,NaN,0.0,4.0,30.0
1,0,24,2,1,1,0,0.1,0.1,36.296295,NaN,practic_1,NaN,NaN,0.0,4.0,30.0
1,0,24,4,1,1,0,0.48095238,0.48095238,283.8095,NaN,practic_1,NaN,NaN,0.0,4.0,30.0
1,0,24,3,1,1,0,0.1,0.1,38.73016,NaN,practic_1,NaN,NaN,0.0,4.0,30.0
1,0,24,2,1,1,0,0.1,0.1,38.73016,NaN,practic_1,NaN,NaN,0.0,4.0,30.0
1,0,24,1,1,1,0,0.1,0.1,38.73016,NaN,practic_1,NaN,NaN,0.0,4.0,30.0
1,0,24,4,1,1,0,0.5,0.5,280.0,NaN,practic_1,NaN,NaN,0.0,4.0,30.0
1,0,24,3,1,1,0,0.1,0.1,40.0,NaN,practic_1,NaN,NaN,0.0,4.0,30.0
1,0,24,2,1,1,0,0.1,0.1,40.0,NaN,practic_1,NaN,NaN,0.0,4.0,30.0
1,0,24,1,1,1,0,0.1,0.1,40.0,NaN,practic_1,NaN,NaN,0.0,4.0,30.0
1,0,24,4,1,1,0,0.50476193,0.50476193,279.0476,NaN,practic_1,NaN,NaN,0.0,4.0,30.0
1,0,24,3,1,1,0,0.1,0.1,40.317463,NaN,practic_1,NaN,NaN,0.0,4.0,30.0
1,0,24,2,1,1,0,0.1,0.1,40.317463,NaN,practic_1,NaN,NaN,0.0,4.0,30.0
1,0,24,1,1,1,0,0.1,0.1,40.317463,NaN,practic_1,NaN,NaN,0.0,4.0,30.0
1,0,24,4,1,1,0,0.46190476,0.46190476,287.61905,NaN,practic_1,NaN,NaN,0.0,4.0,30.0
1,0,24,3,1,1,0,0.1,0.1,37.46032,NaN,practic_1,NaN,NaN,0.0,4.0,30.0
1,0,24,2,1,1,0,0.1,0.1,37.46032,NaN,practic_1,NaN,NaN,0.0,4.0,30.0
1,0,24,1,1,1,0,0.1,0.1,37.46032,NaN,practic_1,NaN,NaN,0.0,4.0,30.0
1,0,24,4,1,1,0,0.44761905,0.44761905,290.47617,NaN,practic_1,NaN,NaN,0.0,4.0,30.0
1,0,24,3,1,1,0,0.1,0.1,36.50794,NaN,practic_1,NaN,NaN,0.0,4.0,30.0
1,0,24,2,1,1,0,0.1,0.1,36.50794,NaN,practic_1,NaN,NaN,0.0,4.0,30.0
1,0,24,1,1,1,0,0.1,0.1,36.50794,NaN,practic_1,NaN,NaN,0.0,4.0,30.0
1,0,24,1,1,1,0,0.1,0.1,37.989418,NaN,practic_1,NaN,NaN,0.0,4.0,30.0
1,0,24,4,1,1,0,0.46984127,0.46984127,286.03177,NaN,practic_1,NaN,NaN,0.0,4.0,30.0
1,0,24,3,1,1,0,0.1,0.1,37.989418,NaN,practic_1,NaN,NaN,0.0,4.0,30.0
1,0,24,2,1,1,0,0.1,0.1,37.989418,NaN,practic_1,NaN,NaN,0.0,4.0,30.0
1,0,23,4,1,1,0,0.5095238,0.5095238,278.09525,NaN,practic_1,NaN,NaN,0.0,4.0,30.0
1,0,23,3,1,1,0,0.1,0.1,40.634922,NaN,practic_1,NaN,NaN,0.0,4.0,30.0
1,0,23,2,1,1,0,0.1,0.1,40.634922,NaN,practic_1,NaN,NaN,0.0,4.0,30.0
1,0,23,1,1,1,0,0.1,0.1,40.634922,NaN,practic_1,NaN,NaN,0.0,4.0,30.0
1,0,23,4,1,1,0,0.5253968,0.5253968,274.92062,NaN,practic_1,NaN,NaN,0.0,4.0,30.0
1,0,23,3,1,1,0,0.1,0.1,41.693123,NaN,practic_1,NaN,NaN,0.0,4.0,30.0
1,0,23,2,1,1,0,0.1,0.1,41.693123,NaN,practic_1,NaN,NaN,0.0,4.0,30.0
1,0,23,1,1,1,0,0.1,0.1,41.693123,NaN,practic_1,NaN,NaN,0.0,4.0,30.0
1,0,23,1,1,1,0,0.1,0.1,41.693123,NaN,practic_1,NaN,NaN,0.0,4.0,30.0
1,0,23,4,1,1,0,0.5253968,0.5253968,274.92062,NaN,practic_1,NaN,NaN,0.0,4.0,30.0
1,0,23,3,1,1,0,0.1,0.1,41.693123,NaN,practic_1,NaN,NaN,0.0,4.0,30.0
1,0,23,2,1,1,0,0.1,0.1,41.693123,NaN,practic_1,NaN,NaN,0.0,4.0,30.0
1,0,23,1,1,1,0,0.1,0.1,41.693123,NaN,practic_1,NaN,NaN,0.0,4.0,30.0
1,0,23,4,1,1,0,0.5253968,0.5253968,274.92062,NaN,practic_1,NaN,NaN,0.0,4.0,30.0
1,0,23,3,1,1,0,0.1,0.1,41.693123,NaN,practic_1,NaN,NaN,0.0,4.0,30.0
1,0,23,2,1,1,0,0.1,0.1,41.693123,NaN,practic_1,NaN,NaN,0.0,4.0,30.0
1,0,23,1,1,1,0,0.1,0.1,41.693123,NaN,practic_1,NaN,NaN,0.0,4.0,30.0
1,0,23,4,1,1,0,0.5253968,0.5253968,274.92062,NaN,practic_1,NaN,NaN,0.0,4.0,30.0
1,0,23,3,1,1,0,0.1,0.1,41.693123,NaN,practic_1,NaN,NaN,0.0,4.0,30.0
1,0,23,2,1,1,0,0.1,0.1,41.693123,NaN,practic_1,NaN,NaN,0.0,4.0,30.0
1,0,23,1,1,1,0,0.1,0.1,41.693123,NaN,practic_1,NaN,NaN,0.0,4.0,30.0
1,0,23,4,1,1,0,0.5253968,0.5253968,274.92062,NaN,practic_1,NaN,NaN,0.0,4.0,30.0
1,0,23,3,1,1,0,0.1,0.1,41.693123,NaN,practic_1,NaN,NaN,0.0,4.0,30.0
1,0,23,2,1,1,0,0.1,0.1,41.693123,NaN,practic_1,NaN,NaN,0.0,4.0,30.0
1,0,23,1,1,1,0,0.1,0.1,41.693123,NaN,practic_1,NaN,NaN,0.0,4.0,30.0
1,0,23,4,1,1,0,0.5253968,0.5253968,274.92062,NaN,practic_1,NaN,NaN,0.0,4.0,30.0
1,0,23,3,1,1,0,0.1,0.1,41.693123,NaN,practic_1,NaN,NaN,0.0,4.0,30.0
1,0,23,2,1,1,0,0.1,0.1,41.693123,NaN,practic_1,NaN,NaN,0.0,4.0,30.0
1,0,23,1,1,1,0,0.1,0.1,41.693123,NaN,practic_1,NaN,NaN,0.0,4.0,30.0
1,0,23,4,1,1,0,0.5253968,0.5253968,274.92062,NaN,practic_1,NaN,NaN,0.0,4.0,30.0
1,0,23,3,1,1,0,0.1,0.1,41.693123,NaN,practic_1,NaN,NaN,0.0,4.0,30.0
1,0,23,2,1,1,0,0.1,0.1,41.693123,NaN,practic_1,NaN,NaN,0.0,4.0,30.0
1,0,23,1,1,1,0,0.1,0.1,41.693123,NaN,practic_1,NaN,NaN,0.0,4.0,30.0
1,0,23,4,1,1,0,0.5253968,0.5253968,274.92062,NaN,practic_1,NaN,NaN,0.0,4.0,30.0
1,0,23,3,1,1,0,0.1,0.1,41.693123,NaN,practic_1,NaN,NaN,0.0,4.0,30.0
1,0,23,2,1,1,0,0.1,0.1,41.693123,NaN,practic_1,NaN,NaN,0.0,4.0,30.0
1,0,23,1,1,1,0,0.1,0.1,41.693123,NaN,practic_1,NaN,NaN,0.0,4.0,30.0
1,0,23,4,1,1,0,0.5253968,0.5253968,274.92062,NaN,practic_1,NaN,NaN,0.0,4.0,30.0
1,0,23,3,1,1,0,0.1,0.1,41.693123,NaN,practic_1,NaN,NaN,0.0,4.0,30.0
1,0,23,2,1,1,0,0.1,0.1,41.693123,NaN,practic_1,NaN,NaN,0.0,4.0,30.0
1,0,22,1,1,1,0,0.1,0.1,41.693123,NaN,practic_1,NaN,NaN,0.0,4.0,30.0
1,0,22,4,1,1,0,0.5253968,0.5253968,274.92062,NaN,practic_1,NaN,NaN,0.0,4.0,30.0
1,0,22,3,1,1,0,0.1,0.1,41.693123,NaN,practic_1,NaN,NaN,0.0,4.0,30.0
1,0,22,2,1,1,0,0.1,0.1,41.693123,NaN,practic_1,NaN,NaN,0.0,4.0,30.0
1,0,22,1,1,1,0,0.1,0.1,41.693123,NaN,practic_1,NaN,NaN,0.0,4.0,30.0
1,0,22,4,1,1,0,0.5253968,0.5253968,274.92062,NaN,practic_1,NaN,NaN,0.0,4.0,30.0
1,0,22,3,1,1,0,0.1,0.1,41.693123,NaN,practic_1,NaN,NaN,0.0,4.0,30.0
1,0,22,2,1,1,0,0.1,0.1,41.693123,NaN,practic_1,NaN,NaN,0.0,4.0,30.0
1,0,22,1,1,1,0,0.1,0.1,41.693123,NaN,practic_1,NaN,NaN,0.0,4.0,30.0
1,0,22,4,1,1,0,0.5253968,0.5253968,274.92062,NaN,practic_1,NaN,NaN,0.0,4.0,30.0
1,0,22,3,1,1,0,0.1,0.1,41.693123,NaN,practic_1,NaN,NaN,0.0,4.0,30.0
1,0,22,2,1,1,0,0.1,0.1,41.693123,NaN,practic_1,NaN,NaN,0.0,4.0,30.0
1,0,22,1,1,1,0,0.1,0.1,41.693123,NaN,practic_1,NaN,NaN,0.0,4.0,30.0
1,0,22,4,1,1,0,0.5253968,0.5253968,274.92062,NaN,practic_1,NaN,NaN,0.0,4.0,30.0
1,0,22,3,1,1,0,0.1,0.1,41.693123,NaN,practic_1,NaN,NaN,0.0,4.0,30.0
1,0,22,2,1,1,0,0.1,0.1,41.693123,NaN,practic_1,NaN,NaN,0.0,4.0,30.0
1,0,22,1,1,1,0,0.1,0.1,41.693123,NaN,practic_1,NaN,NaN,0.0,4.0,30.0
1,0,22,4,1,1,0,0.5253968,0.5253968,274.92062,NaN,practic_1,NaN,NaN,0.0,4.0,30.0
1,0,22,3,1,1,0,0.1,0.1,41.693123,NaN,practic_1,NaN,NaN,0.0,4.0,30.0
1,0,22,2,1,1,0,0.1,0.1,41.693123,NaN,practic_1,NaN,NaN,0.0,4.0,30.0
1,0,22,1,1,1,0,0.1,0.1,41.693123,NaN,practic_1,NaN,NaN,0.0,4.0,30.0
1,0,22,4,1,1,0,0.5253968,0.5253968,274.92062,NaN,practic_1,NaN,NaN,0.0,4.0,30.0
1,0,22,3,1,1,0,0.1,0.1,41.693123,NaN,practic_1,NaN,NaN,0.0,4.0,30.0
1,0,22,2,1,1,0,0.1,0.1,41.693123,NaN,practic_1,NaN,NaN,0.0,4.0,30.0
1,0,22,1,1,1,0,0.1,0.1,41.693123,NaN,practic_1,NaN,NaN,0.0,4.0,30.0
1,0,22,4,1,1,0,0.5253968,0.5253968,274.92062,NaN,practic_1,NaN,NaN,0.0,4.0,30.0
1,0,22,3,1,1,0,0.1,0.1,41.693123,NaN,practic_1,NaN,NaN,0.0,4.0,30.0
1,0,22,2,1,1,0,0.1,0.1,41.693123,NaN,practic_1,NaN,NaN,0.0,4.0,30.0
1,0,22,1,1,1,0,0.1,0.1,41.693123,NaN,practic_1,NaN,NaN,0.0,4.0,30.0
1,0,22,4,1,1,0,0.5253968,0.5253968,274.92062,NaN,practic_1,NaN,NaN,0.0,4.0,30.0
1,0,22,3,1,1,0,0.1,0.1,41.693123,NaN,practic_1,NaN,NaN,0.0,4.0,30.0
1,0,22,2,1,1,0,0.1,0.1,41.693123,NaN,practic_1,NaN,NaN,0.0,4.0,30.0
1,0,22,1,1,1,0,0.1,0.1,41.693123,NaN,practic_1,NaN,NaN,0.0,4.0,30.0
1,0,22,4,1,1,0,0.5253968,0.5253968,274.92062,NaN,practic_1,NaN,NaN,0.0,4.0,30.0
1,0,22,3,1,1,0,0.1,0.1,41.693123,NaN,practic_1,NaN,NaN,0.0,4.0,30.0
1,0,22,2,1,1,0,0.1,0.1,41.693123,NaN,practic_1,NaN,NaN,0.0,4.0,30.0
1,0,22,1,1,1,0,0.1,0.1,41.693123,NaN,practic_1,NaN,NaN,0.0,4.0,30.0
1,0,22,4,1,1,0,0.5253968,0.5253968,274.92062,NaN,practic_1,NaN,NaN,0.0,4.0,30.0
1,0,22,3,1,1,0,0.1,0.1,41.693123,NaN,practic_1,NaN,NaN,0.0,4.0,30.0
1,0,22,2,1,1,0,0.1,0.1,41.693123,NaN,practic_1,NaN,NaN,0.0,4.0,30.0
1,0,21,1,1,1,0,0.1,0.1,41.693123,NaN,practic_1,NaN,NaN,0.0,4.0,30.0
1,0,21,4,1,1,0,0.5253968,0.5253968,274.92062,NaN,practic_1,NaN,NaN,0.0,4.0,30.0
1,0,21,3,1,1,0,0.1,0.1,41.693123,NaN,practic_1,NaN,NaN,0.0,4.0,30.0
1,0,21,2,1,1,0,0.1,0.1,41.693123,NaN,practic_1,NaN,NaN,0.0,4.0,30.0
1,0,21,1,1,1,0,0.1,0.1,41.693123,NaN,practic_1,NaN,NaN,0.0,4.0,30.0
1,0,21,4,1,1,0,0.5253968,0.5253968,274.92062,NaN,practic_1,NaN,NaN,0.0,4.0,30.0
1,0,21,3,1,1,0,0.1,0.1,41.693123,NaN,practic_1,NaN,NaN,0.0,4.0,30.0
1,0,21,2,1,1,0,0.1,0.1,41.693123,NaN,practic_1,NaN,NaN,0.0,4.0,30.0
1,0,21,1,1,1,0,0.1,0.1,41.693123,NaN,practic_1,NaN,NaN,0.0,4.0,30.0
1,0,21,4,1,1,0,0.5253968,0.5253968,274.92062,NaN,practic_1,NaN,NaN,0.0,4.0,30.0
1,0,21,3,1,1,0,0.1,0.1,41.693123,NaN,practic_1,NaN,NaN,0.0,4.0,30.0
1,0,21,2,1,1,0,0.1,0.1,41.693123,NaN,practic_1,NaN,NaN,0.0,4.0,30.0
1,0,21,1,1,1,0,0.1,0.1,41.693123,NaN,practic_1,NaN,NaN,0.0,4.0,30.0
1,0,21,4,1,1,0,0.5253968,0.5253968,274.92062,NaN,practic_1,NaN,NaN,0.0,4.0,30.0
1,0,21,3,1,1,0,0.1,0.1,41.693123,NaN,practic_1,NaN,NaN,0.0,4.0,30.0
1,0,21,2,1,1,0,0.1,0.1,41.693123,NaN,practic_1,NaN,NaN,0.0,4.0,30.0
1,0,21,4,1,1,0,0.5253968,0.5253968,274.92062,NaN,practic_1,NaN,NaN,0.0,4.0,30.0
1,0,21,3,1,1,0,0.1,0.1,41.693123,NaN,practic_1,NaN,NaN,0.0,4.0,30.0
1,0,21,2,1,1,0,0.1,0.1,41.693123,NaN,practic_1,NaN,NaN,0.0,4.0,30.0
1,0,21,1,1,1,0,0.1,0.1,41.693123,NaN,practic_1,NaN,NaN,0.0,4.0,30.0
1,0,21,1,1,1,0,0.1,0.1,41.693123,NaN,practic_1,NaN,NaN,0.0,4.0,30.0
1,0,21,4,1,1,0,0.5253968,0.5253968,274.92062,NaN,practic_1,NaN,NaN,0.0,4.0,30.0
1,0,21,3,1,1,0,0.1,0.1,41.693123,NaN,practic_1,NaN,NaN,0.0,4.0,30.0
1,0,21,2,1,1,0,0.1,0.1,41.693123,NaN,practic_1,NaN,NaN,0.0,4.0,30.0
1,0,21,1,1,1,0,0.1,0.1,41.693123,NaN,practic_1,NaN,NaN,0.0,4.0,30.0
1,0,21,4,1,1,0,0.5253968,0.5253968,274.92062,NaN,practic_1,NaN,NaN,0.0,4.0,30.0
1,0,21,3,1,1,0,0.1,0.1,41.693123,NaN,practic_1,NaN,NaN,0.0,4.0,30.0
1,0,21,2,1,1,0,0.1,0.1,41.693123,NaN,practic_1,NaN,NaN,0.0,4.0,30.0
1,0,21,1,1,1,0,0.1,0.1,41.693123,NaN,practic_1,NaN,NaN,0.0,4.0,30.0
1,0,21,4,1,1,0,0.5253968,0.5253968,274.92062,NaN,practic_1,NaN,NaN,0.0,4.0,30.0
1,0,21,3,1,1,0,0.1,0.1,41.693123,NaN,practic_1,NaN,NaN,0.0,4.0,30.0
1,0,21,2,1,1,0,0.1,0.1,41.693123,NaN,practic_1,NaN,NaN,0.0,4.0,30.0
1,0,21,1,1,1,0,0.1,0.1,41.693123,NaN,practic_1,NaN,NaN,0.0,4.0,30.0
1,0,21,4,1,1,0,0.5253968,0.5253968,274.92062,NaN,practic_1,NaN,NaN,0.0,4.0,30.0
1,0,21,3,1,1,0,0.1,0.1,41.693123,NaN,practic_1,NaN,NaN,0.0,4.0,30.0
1,0,21,2,1,1,0,0.1,0.1,41.693123,NaN,practic_1,NaN,NaN,0.0,4.0,30.0
1,0,21,1,1,1,0,0.1,0.1,41.693123,NaN,practic_1,NaN,NaN,0.0,4.0,30.0
1,0,21,4,1,1,0,0.5253968,0.5253968,274.92062,NaN,practic_1,NaN,NaN,0.0,4.0,30.0
1,0,21,3,1,1,0,0.1,0.1,41.693123,NaN,practic_1,NaN,NaN,0.0,4.0,30.0
1,0,21,2,1,1,0,0.1,0.1,41.693123,NaN,practic_1,NaN,NaN,0.0,4.0,30.0
1,0,20,4,1,1,0,0.5253968,0.5253968,274.92062,NaN,practic_1,NaN,NaN,0.0,4.0,30.0
1,0,20,3,1,1,0,0.1,0.1,41.693123,NaN,practic_1,NaN,NaN,0.0,4.0,30.0
1,0,20,2,1,1,0,0.1,0.1,41.693123,NaN,practic_1,NaN,NaN,0.0,4.0,30.0
1,0,20,1,1,1,0,0.1,0.1,41.693123,NaN,practic_1,NaN,NaN,0.0,4.0,30.0
1,0,20,1,1,1,0,0.1,0.1,41.693123,NaN,practic_1,NaN,NaN,0.0,4.0,30.0
1,0,20,4,1,1,0,0.5253968,0.5253968,274.92062,NaN,practic_1,NaN,NaN,0.0,4.0,30.0
1,0,20,3,1,1,0,0.1,0.1,41.693123,NaN,practic_1,NaN,NaN,0.0,4.0,30.0
1,0,20,2,1,1,0,0.1,0.1,41.693123,NaN,practic_1,NaN,NaN,0.0,4.0,30.0
1,0,20,1,1,1,0,0.1,0.1,41.693123,NaN,practic_1,NaN,NaN,0.0,4.0,30.0
1,0,20,4,1,1,0,0.5253968,0.5253968,274.92062,NaN,practic_1,NaN,NaN,0.0,4.0,30.0
1,0,20,3,1,1,0,0.1,0.1,41.693123,NaN,practic_1,NaN,NaN,0.0,4.0,30.0
1,0,20,2,1,1,0,0.1,0.1,41.693123,NaN,practic_1,NaN,NaN,0.0,4.0,30.0
1,0,20,1,1,1,0,0.1,0.1,41.693123,NaN,practic_1,NaN,NaN,0.0,4.0,30.0
1,0,20,4,1,1,0,0.5253968,0.5253968,274.92062,NaN,practic_1,NaN,NaN,0.0,4.0,30.0
1,0,20,3,1,1,0,0.1,0.1,41.693123,NaN,practic_1,NaN,NaN,0.0,4.0,30.0
1,0,20,2,1,1,0,0.1,0.1,41.693123,NaN,practic_1,NaN,NaN,0.0,4.0,30.0
1,0,20,1,1,1,0,0.1,0.1,41.693123,NaN,practic_1,NaN,NaN,0.0,4.0,30.0
1,0,20,4,1,1,0,0.5253968,0.5253968,274.92062,NaN,practic_1,NaN,NaN,0.0,4.0,30.0
1,0,20,3,1,1,0,0.1,0.1,41.693123,NaN,practic_1,NaN,NaN,0.0,4.0,30.0
1,0,20,2,1,1,0,0.1,0.1,41.693123,NaN,practic_1,NaN,NaN,0.0,4.0,30.0
1,0,20,1,1,1,0,0.1,0.1,41.693123,NaN,practic_1,NaN,NaN,0.0,4.0,30.0
1,0,20,4,1,1,0,0.5253968,0.5253968,274.92062,NaN,practic_1,NaN,NaN,0.0,4.0,30.0
1,0,20,3,1,1,0,0.1,0.1,41.693123,NaN,practic_1,NaN,NaN,0.0,4.0,30.0
1,0,20,2,1,1,0,0.1,0.1,41.693123,NaN,practic_1,NaN,NaN,0.0,4.0,30.0
1,0,20,1,1,1,0,0.1,0.1,41.693123,NaN,practic_1,NaN,NaN,0.0,4.0,30.0
1,0,20,4,1,1,0,0.5253968,0.5253968,274.92062,NaN,practic_1,NaN,NaN,0.0,4.0,30.0
1,0,20,3,1,1,0,0.1,0.1,41.693123,NaN,practic_1,NaN,NaN,0.0,4.0,30.0
1,0,20,2,1,1,0,0.1,0.1,41.693123,NaN,practic_1,NaN,NaN,0.0,4.0,30.0
1,0,20,1,1,1,0,0.1,0.1,41.693123,NaN,practic_1,NaN,NaN,0.0,4.0,30.0
1,0,20,4,1,1,0,0.5253968,0.5253968,274.92062,NaN,practic_1,NaN,NaN,0.0,4.0,30.0
1,0,20,3,1,1,0,0.1,0.1,41.693123,NaN,practic_1,NaN,NaN,0.0,4.0,30.0
1,0,20,2,1,1,0,0.1,0.1,41.693123,NaN,practic_1,NaN,NaN,0.0,4.0,30.0
1,0,20,1,1,1,0,0.1,0.1,41.693123,NaN,practic_1,NaN,NaN,0.0,4.0,30.0
1,0,20,4,1,1,0,0.5253968,0.5253968,274.92062,NaN,practic_1,NaN,NaN,0.0,4.0,30.0
1,0,20,3,1,1,0,0.1,0.1,41.693123,NaN,practic_1,NaN,NaN,0.0,4.0,30.0
1,0,20,2,1,1,0,0.1,0.1,41.693123,NaN,practic_1,NaN,NaN,0.0,4.0,30.0
1,0,20,1,1,1,0,0.1,0.1,41.693123,NaN,practic_1,NaN,NaN,0.0,4.0,30.0
1,0,20,4,1,1,0,0.5253968,0.5253968,274.92062,NaN,practic_1,NaN,NaN,0.0,4.0,30.0
1,0,20,3,1,1,0,0.1,0.1,41.693123,NaN,practic_1,NaN,NaN,0.0,4.0,30.0
1,0,20,2,1,1,0,0.1,0.1,41.693123,NaN,practic_1,NaN,NaN,0.0,4.0,30.0
1,0,19,1,1,1,0,0.1,0.1,41.693123,NaN,practic_1,NaN,NaN,0.0,4.0,30.0
1,0,19,4,1,1,0,0.5253968,0.5253968,274.92062,NaN,practic_1,NaN,NaN,0.0,4.0,30.0
1,0,19,3,1,1,0,0.1,0.1,41.693123,NaN,practic_1,NaN,NaN,0.0,4.0,30.0
1,0,19,2,1,1,0,0.1,0.1,41.693123,NaN,practic_1,NaN,NaN,0.0,4.0,30.0
1,0,19,1,1,1,0,0.1,0.1,41.693123,NaN,practic_1,NaN,NaN,0.0,4.0,30.0
1,0,19,4,1,1,0,0.5253968,0.5253968,274.92062,NaN,practic_1,NaN,NaN,0.0,4.0,30.0
1,0,19,3,1,1,0,0.1,0.1,41.693123,NaN,practic_1,NaN,NaN,0.0,4.0,30.0
1,0,19,2,1,1,0,0.1,0.1,41.693123,NaN,practic_1,NaN,NaN,0.0,4.0,30.0
1,0,19,1,1,1,0,0.1,0.1,41.693123,NaN,practic_1,NaN,NaN,0.0,4.0,30.0
1,0,19,4,1,1,0,0.5253968,0.5253968,274.92062,NaN,practic_1,NaN,NaN,0.0,4.0,30.0
1,0,19,3,1,1,0,0.1,0.1,41.693123,NaN,practic_1,NaN,NaN,0.0,4.0,30.0
1,0,19,2,1,1,0,0.1,0.1,41.693123,NaN,practic_1,NaN,NaN,0.0,4.0,30.0
1,0,19,1,1,1,0,0.1,0.1,41.693123,NaN,practic_1,NaN,NaN,0.0,4.0,30.0
1,0,19,4,1,1,0,0.5253968,0.5253968,274.92062,NaN,practic_1,NaN,NaN,0.0,4.0,30.0
1,0,19,3,1,1,0,0.1,0.1,41.693123,NaN,practic_1,NaN,NaN,0.0,4.0,30.0
1,0,19,2,1,1,0,0.1,0.1,41.693123,NaN,practic_1,NaN,NaN,0.0,4.0,30.0
1,0,19,1,1,1,0,0.1,0.1,41.693123,NaN,practic_1,NaN,NaN,0.0,4.0,30.0
1,0,19,4,1,1,0,0.5253968,0.5253968,274.92062,NaN,practic_1,NaN,NaN,0.0,4.0,30.0
1,0,19,3,1,1,0,0.1,0.1,41.693123,NaN,practic_1,NaN,NaN,0.0,4.0,30.0
1,0,19,2,1,1,0,0.1,0.1,41.693123,NaN,practic_1,NaN,NaN,0.0,4.0,30.0
1,0,19,1,1,1,0,0.1,0.1,41.693123,NaN,practic_1,NaN,NaN,0.0,4.0,30.0
1,0,19,4,1,1,0,0.5253968,0.5253968,274.92062,NaN,practic_1,NaN,NaN,0.0,4.0,30.0
1,0,19,3,1,1,0,0.1,0.1,41.693123,NaN,practic_1,NaN,NaN,0.0,4.0,30.0
1,0,19,2,1,1,0,0.1,0.1,41.693123,NaN,practic_1,NaN,NaN,0.0,4.0,30.0
1,0,19,1,1,1,0,0.1,0.1,41.693123,NaN,practic_1,NaN,NaN,0.0,4.0,30.0
1,0,19,4,1,1,0,0.5253968,0.5253968,274.92062,NaN,practic_1,NaN,NaN,0.0,4.0,30.0
1,0,19,3,1,1,0,0.1,0.1,41.693123,NaN,practic_1,NaN,NaN,0.0,4.0,30.0
1,0,19,2,1,1,0,0.1,0.1,41.693123,NaN,practic_1,NaN,NaN,0.0,4.0,30.0
1,0,19,1,1,1,0,0.1,0.1,41.693123,NaN,practic_1,NaN,NaN,0.0,4.0,30.0
1,0,19,4,1,1,0,0.5253968,0.5253968,274.92062,NaN,practic_1,NaN,NaN,0.0,4.0,30.0
1,0,19,3,1,1,0,0.1,0.1,41.693123,NaN,practic_1,NaN,NaN,0.0,4.0,30.0
1,0,19,2,1,1,0,0.1,0.1,41.693123,NaN,practic_1,NaN,NaN,0.0,4.0,30.0
1,0,19,1,1,1,0,0.1,0.1,41.693123,NaN,practic_1,NaN,NaN,0.0,4.0,30.0
1,0,19,4,1,1,0,0.5253968,0.5253968,274.92062,NaN,practic_1,NaN,NaN,0.0,4.0,30.0
1,0,19,3,1,1,0,0.1,0.1,41.693123,NaN,practic_1,NaN,NaN,0.0,4.0,30.0
1,0,19,2,1,1,0,0.1,0.1,41.693123,NaN,practic_1,NaN,NaN,0.0,4.0,30.0
1,0,19,1,1,1,0,0.1,0.1,41.693123,NaN,practic_1,NaN,NaN,0.0,4.0,30.0
1,0,19,4,1,1,0,0.5253968,0.5253968,274.92062,NaN,practic_1,NaN,NaN,0.0,4.0,30.0
1,0,19,3,1,1,0,0.1,0.1,41.693123,NaN,practic_1,NaN,NaN,0.0,4.0,30.0
1,0,19,2,1,1,0,0.1,0.1,41.693123,NaN,practic_1,NaN,NaN,0.0,4.0,30.0
1,0,18,1,1,1,0,0.1,0.1,41.693123,NaN,practic_1,NaN,NaN,0.0,4.0,30.0
1,0,18,4,1,1,0,0.5253968,0.5253968,274.92062,NaN,practic_1,NaN,NaN,0.0,4.0,30.0
1,0,18,3,1,1,0,0.1,0.1,41.693123,NaN,practic_1,NaN,NaN,0.0,4.0,30.0
1,0,18,2,1,1,0,0.1,0.1,41.693123,NaN,practic_1,NaN,NaN,0.0,4.0,30.0
1,0,18,1,1,1,0,0.1,0.1,41.693123,NaN,practic_1,NaN,NaN,0.0,4.0,30.0
1,0,18,4,1,1,0,0.5253968,0.5253968,274.92062,NaN,practic_1,NaN,NaN,0.0,4.0,30.0
1,0,18,3,1,1,0,0.1,0.1,41.693123,NaN,practic_1,NaN,NaN,0.0,4.0,30.0
1,0,18,2,1,1,0,0.1,0.1,41.693123,NaN,practic_1,NaN,NaN,0.0,4.0,30.0
1,0,18,1,1,1,0,0.1,0.1,41.693123,NaN,practic_1,NaN,NaN,0.0,4.0,30.0
1,0,18,4,1,1,0,0.5253968,0.5253968,274.92062,NaN,practic_1,NaN,NaN,0.0,4.0,30.0
1,0,18,3,1,1,0,0.1,0.1,41.693123,NaN,practic_1,NaN,NaN,0.0,4.0,30.0
1,0,18,2,1,1,0,0.1,0.1,41.693123,NaN,practic_1,NaN,NaN,0.0,4.0,30.0
1,0,18,1,1,1,0,0.1,0.1,41.693123,NaN,practic_1,NaN,NaN,0.0,4.0,30.0
1,0,18,4,1,1,0,0.5253968,0.5253968,274.92062,NaN,practic_1,NaN,NaN,0.0,4.0,30.0
1,0,18,3,1,1,0,0.1,0.1,41.693123,NaN,practic_1,NaN,NaN,0.0,4.0,30.0
1,0,18,2,1,1,0,0.1,0.1,41.693123,NaN,practic_1,NaN,NaN,0.0,4.0,30.0
1,0,18,1,1,1,0,0.1,0.1,41.693123,NaN,practic_1,NaN,NaN,0.0,4.0,30.0
1,0,18,4,1,1,0,0.5253968,0.5253968,274.92062,NaN,practic_1,NaN,NaN,0.0,4.0,30.0
1,0,18,3,1,1,0,0.1,0.1,41.693123,NaN,practic_1,NaN,NaN,0.0,4.0,30.0
1,0,18,2,1,1,0,0.1,0.1,41.693123,NaN,practic_1,NaN,NaN,0.0,4.0,30.0
1,0,18,1,1,1,0,0.1,0.1,41.693123,NaN,practic_1,NaN,NaN,0.0,4.0,30.0
1,0,18,4,1,1,0,0.5253968,0.5253968,274.92062,NaN,practic_1,NaN,NaN,0.0,4.0,30.0
1,0,18,3,1,1,0,0.1,0.1,41.693123,NaN,practic_1,NaN,NaN,0.0,4.0,30.0
1,0,18,2,1,1,0,0.1,0.1,41.693123,NaN,practic_1,NaN,NaN,0.0,4.0,30.0
1,0,18,1,1,1,0,0.1,0.1,41.693123,NaN,practic_1,NaN,NaN,0.0,4.0,30.0
1,0,18,4,1,1,0,0.5253968,0.5253968,274.92062,NaN,practic_1,NaN,NaN,0.0,4.0,30.0
1,0,18,3,1,1,0,0.1,0.1,41.693123,NaN,practic_1,NaN,NaN,0.0,4.0,30.0
1,0,18,2,1,1,0,0.1,0.1,41.693123,NaN,practic_1,NaN,NaN,0.0,4.0,30.0
1,0,18,1,1,1,0,0.1,0.1,41.693123,NaN,practic_1,NaN,NaN,0.0,4.0,30.0
1,0,18,4,1,1,0,0.5253968,0.5253968,274.92062,NaN,practic_1,NaN,NaN,0.0,4.0,30.0
1,0,18,3,1,1,0,0.1,0.1,41.693123,NaN,practic_1,NaN,NaN,0.0,4.0,30.0
1,0,18,2,1,1,0,0.1,0.1,41.693123,NaN,practic_1,NaN,NaN,0.0,4.0,30.0
1,0,18,1,1,1,0,0.1,0.1,41.693123,NaN,practic_1,NaN,NaN,0.0,4.0,30.0
1,0,18,4,1,1,0,0.5253968,0.5253968,274.92062,NaN,practic_1,NaN,NaN,0.0,4.0,30.0
1,0,18,3,1,1,0,0.1,0.1,41.693123,NaN,practic_1,NaN,NaN,0.0,4.0,30.0
1,0,18,2,1,1,0,0.1,0.1,41.693123,NaN,practic_1,NaN,NaN,0.0,4.0,30.0
1,0,18,1,1,1,0,0.1,0.1,41.693123,NaN,practic_1,NaN,NaN,0.0,4.0,30.0
1,0,18,4,1,1,0,0.5253968,0.5253968,274.92062,NaN,practic_1,NaN,NaN,0.0,4.0,30.0
1,0,18,3,1,1,0,0.1,0.1,41.693123,NaN,practic_1,NaN,NaN,0.0,4.0,30.0
1,0,18,2,1,1,0,0.1,0.1,41.693123,NaN,practic_1,NaN,NaN,0.0,4.0,30.0
1,0,17,1,1,1,0,0.1,0.1,41.693123,NaN,practic_1,NaN,NaN,0.0,4.0,30.0
1,0,17,4,1,1,0,0.5253968,0.5253968,274.92062,NaN,practic_1,NaN,NaN,0.0,4.0,30.0
1,0,17,3,1,1,0,0.1,0.1,41.693123,NaN,practic_1,NaN,NaN,0.0,4.0,30.0
1,0,17,2,1,1,0,0.1,0.1,41.693123,NaN,practic_1,NaN,NaN,0.0,4.0,30.0
1,0,17,1,1,1,0,0.1,0.1,41.693123,NaN,practic_1,NaN,NaN,0.0,4.0,30.0
1,0,17,4,1,1,0,0.5253968,0.5253968,274.92062,NaN,practic_1,NaN,NaN,0.0,4.0,30.0
1,0,17,3,1,1,0,0.1,0.1,41.693123,NaN,practic_1,NaN,NaN,0.0,4.0,30.0
1,0,17,2,1,1,0,0.1,0.1,41.693123,NaN,practic_1,NaN,NaN,0.0,4.0,30.0
1,0,17,1,1,1,0,0.1,0.1,41.693123,NaN,practic_1,NaN,NaN,0.0,4.0,30.0
1,0,17,4,1,1,0,0.5253968,0.5253968,274.92062,NaN,practic_1,NaN,NaN,0.0,4.0,30.0
1,0,17,3,1,1,0,0.1,0.1,41.693123,NaN,practic_1,NaN,NaN,0.0,4.0,30.0
1,0,17,2,1,1,0,0.1,0.1,41.693123,NaN,practic_1,NaN,NaN,0.0,4.0,30.0
1,0,17,1,1,1,0,0.1,0.1,41.693123,NaN,practic_1,NaN,NaN,0.0,4.0,30.0
1,0,17,4,1,1,0,0.5253968,0.5253968,274.92062,NaN,practic_1,NaN,NaN,0.0,4.0,30.0
1,0,17,3,1,1,0,0.1,0.1,41.693123,NaN,practic_1,NaN,NaN,0.0,4.0,30.0
1,0,17,2,1,1,0,0.1,0.1,41.693123,NaN,practic_1,NaN,NaN,0.0,4.0,30.0
1,0,17,1,1,1,0,0.1,0.1,41.693123,NaN,practic_1,NaN,NaN,0.0,4.0,30.0
1,0,17,4,1,1,0,0.5253968,0.5253968,274.92062,NaN,practic_1,NaN,NaN,0.0,4.0,30.0
1,0,17,3,1,1,0,0.1,0.1,41.693123,NaN,practic_1,NaN,NaN,0.0,4.0,30.0
1,0,17,2,1,1,0,0.1,0.1,41.693123,NaN,practic_1,NaN,NaN,0.0,4.0,30.0
1,0,17,1,1,1,0,0.1,0.1,41.693123,NaN,practic_1,NaN,NaN,0.0,4.0,30.0
1,0,17,4,1,1,0,0.5253968,0.5253968,274.92062,NaN,practic_1,NaN,NaN,0.0,4.0,30.0
1,0,17,3,1,1,0,0.1,0.1,41.693123,NaN,practic_1,NaN,NaN,0.0,4.0,30.0
1,0,17,2,1,1,0,0.1,0.1,41.693123,NaN,practic_1,NaN,NaN,0.0,4.0,30.0
1,0,17,1,1,1,0,0.1,0.1,41.693123,NaN,practic_1,NaN,NaN,0.0,4.0,30.0
1,0,17,4,1,1,0,0.5253968,0.5253968,274.92062,NaN,practic_1,NaN,NaN,0.0,4.0,30.0
1,0,17,3,1,1,0,0.1,0.1,41.693123,NaN,practic_1,NaN,NaN,0.0,4.0,30.0
1,0,17,2,1,1,0,0.1,0.1,41.693123,NaN,practic_1,NaN,NaN,0.0,4.0,30.0
1,0,17,1,1,1,0,0.1,0.1,41.693123,NaN,practic_1,NaN,NaN,0.0,4.0,30.0
1,0,17,4,1,1,0,0.5253968,0.5253968,274.92062,NaN,practic_1,NaN,NaN,0.0,4.0,30.0
1,0,17,3,1,1,0,0.1,0.1,41.693123,NaN,practic_1,NaN,NaN,0.0,4.0,30.0
1,0,17,2,1,1,0,0.1,0.1,41.693123,NaN,practic_1,NaN,NaN,0.0,4.0,30.0
1,0,17,1,1,1,0,0.1,0.1,41.693123,NaN,practic_1,NaN,NaN,0.0,4.0,30.0
1,0,17,4,1,1,0,0.5253968,0.5253968,274.92062,NaN,practic_1,NaN,NaN,0.0,4.0,30.0
1,0,17,3,1,1,0,0.1,0.1,41.693123,NaN,practic_1,NaN,NaN,0.0,4.0,30.0
1,0,17,2,1,1,0,0.1,0.1,41.693123,NaN,practic_1,NaN,NaN,0.0,4.0,30.0
1,0,17,1,1,1,0,0.1,0.1,41.693123,NaN,practic_1,NaN,NaN,0.0,4.0,30.0
1,0,17,4,1,1,0,0.5253968,0.5253968,274.92062,NaN,practic_1,NaN,NaN,0.0,4.0,30.0
1,0,17,3,1,1,0,0.1,0.1,41.693123,NaN,practic_1,NaN,NaN,0.0,4.0,30.0
1,0,17,2,1,1,0,0.1,0.1,41.693123,NaN,practic_1,NaN,NaN,0.0,4.0,30.0
1,0,16,4,1,1,0,0.5253968,0.5253968,274.92062,NaN,practic_1,NaN,NaN,0.0,4.0,30.0
1,0,16,3,1,1,0,0.1,0.1,41.693123,NaN,practic_1,NaN,NaN,0.0,4.0,30.0
1,0,16,2,1,1,0,0.1,0.1,41.693123,NaN,practic_1,NaN,NaN,0.0,4.0,30.0
1,0,16,1,1,1,0,0.1,0.1,41.693123,NaN,practic_1,NaN,NaN,0.0,4.0,30.0
1,0,16,1,1,1,0,0.1,0.1,41.693123,NaN,practic_1,NaN,NaN,0.0,4.0,30.0
1,0,16,4,1,1,0,0.5253968,0.5253968,274.92062,NaN,practic_1,NaN,NaN,0.0,4.0,30.0
1,0,16,3,1,1,0,0.1,0.1,41.693123,NaN,practic_1,NaN,NaN,0.0,4.0,30.0
1,0,16,2,1,1,0,0.1,0.1,41.693123,NaN,practic_1,NaN,NaN,0.0,4.0,30.0
1,0,16,1,1,1,0,0.1,0.1,41.693123,NaN,practic_1,NaN,NaN,0.0,4.0,30.0
1,0,16,4,1,1,0,0.5253968,0.5253968,274.92062,NaN,practic_1,NaN,NaN,0.0,4.0,30.0
1,0,16,3,1,1,0,0.1,0.1,41.693123,NaN,practic_1,NaN,NaN,0.0,4.0,30.0
1,0,16,2,1,1,0,0.1,0.1,41.693123,NaN,practic_1,NaN,NaN,0.0,4.0,30.0
1,0,16,1,1,1,0,0.1,0.1,41.693123,NaN,practic_1,NaN,NaN,0.0,4.0,30.0
1,0,16,4,1,1,0,0.5253968,0.5253968,274.92062,NaN,practic_1,NaN,NaN,0.0,4.0,30.0
1,0,16,3,1,1,0,0.1,0.1,41.693123,NaN,practic_1,NaN,NaN,0.0,4.0,30.0
1,0,16,2,1,1,0,0.1,0.1,41.693123,NaN,practic_1,NaN,NaN,0.0,4.0,30.0
1,0,16,1,1,1,0,0.1,0.1,41.693123,NaN,practic_1,NaN,NaN,0.0,4.0,30.0
1,0,16,4,1,1,0,0.5253968,0.5253968,274.92062,NaN,practic_1,NaN,NaN,0.0,4.0,30.0
1,0,16,3,1,1,0,0.1,0.1,41.693123,NaN,practic_1,NaN,NaN,0.0,4.0,30.0
1,0,16,2,1,1,0,0.1,0.1,41.693123,NaN,practic_1,NaN,NaN,0.0,4.0,30.0
1,0,16,1,1,1,0,0.1,0.1,41.693123,NaN,practic_1,NaN,NaN,0.0,4.0,30.0
1,0,16,4,1,1,0,0.5253968,0.5253968,274.92062,NaN,practic_1,NaN,NaN,0.0,4.0,30.0
1,0,16,3,1,1,0,0.1,0.1,41.693123,NaN,practic_1,NaN,NaN,0.0,4.0,30.0
1,0,16,2,1,1,0,0.1,0.1,41.693123,NaN,practic_1,NaN,NaN,0.0,4.0,30.0
1,0,16,1,1,1,0,0.1,0.1,41.693123,NaN,practic_1,NaN,NaN,0.0,4.0,30.0
1,0,16,4,1,1,0,0.5253968,0.5253968,274.92062,NaN,practic_1,NaN,NaN,0.0,4.0,30.0
1,0,16,3,1,1,0,0.1,0.1,41.693123,NaN,practic_1,NaN,NaN,0.0,4.0,30.0
1,0,16,2,1,1,0,0.1,0.1,41.693123,NaN,practic_1,NaN,NaN,0.0,4.0,30.0
1,0,16,1,1,1,0,0.1,0.1,41.693123,NaN,practic_1,NaN,NaN,0.0,4.0,30.0
1,0,16,4,1,1,0,0.5253968,0.5253968,274.92062,NaN,practic_1,NaN,NaN,0.0,4.0,30.0
1,0,16,3,1,1,0,0.1,0.1,41.693123,NaN,practic_1,NaN,NaN,0.0,4.0,30.0
1,0,16,2,1,1,0,0.1,0.1,41.693123,NaN,practic_1,NaN,NaN,0.0,4.0,30.0
1,0,16,1,1,1,0,0.1,0.1,41.693123,NaN,practic_1,NaN,NaN,0.0,4.0,30.0
1,0,16,4,1,1,0,0.5253968,0.5253968,274.92062,NaN,practic_1,NaN,NaN,0.0,4.0,30.0
1,0,16,3,1,1,0,0.1,0.1,41.693123,NaN,practic_1,NaN,NaN,0.0,4.0,30.0
1,0,16,2,1,1,0,0.1,0.1,41.693123,NaN,practic_1,NaN,NaN,0.0,4.0,30.0
1,0,16,1,1,1,0,0.1,0.1,41.693123,NaN,practic_1,NaN,NaN,0.0,4.0,30.0
1,0,16,4,1,1,0,0.5253968,0.5253968,274.92062,NaN,practic_1,NaN,NaN,0.0,4.0,30.0
1,0,16,3,1,1,0,0.1,0.1,41.693123,NaN,practic_1,NaN,NaN,0.0,4.0,30.0
1,0,16,2,1,1,0,0.1,0.1,41.693123,NaN,practic_1,NaN,NaN,0.0,4.0,30.0
1,0,15,4,1,1,0,0.5253968,0.5253968,274.92062,NaN,practic_1,NaN,NaN,0.0,4.0,30.0
1,0,15,3,1,1,0,0.1,0.1,41.693123,NaN,practic_1,NaN,NaN,0.0,4.0,30.0
1,0,15,2,1,1,0,0.1,0.1,41.693123,NaN,practic_1,NaN,NaN,0.0,4.0,30.0
1,0,15,1,1,1,0,0.1,0.1,41.693123,NaN,practic_1,NaN,NaN,0.0,4.0,30.0
1,0,15,4,1,1,0,0.5253968,0.5253968,274.92062,NaN,practic_1,NaN,NaN,0.0,4.0,30.0
1,0,15,3,1,1,0,0.1,0.1,41.693123,NaN,practic_1,NaN,NaN,0.0,4.0,30.0
1,0,15,2,1,1,0,0.1,0.1,41.693123,NaN,practic_1,NaN,NaN,0.0,4.0,30.0
1,0,15,1,1,1,0,0.1,0.1,41.693123,NaN,practic_1,NaN,NaN,0.0,4.0,30.0
1,0,15,4,1,1,0,0.5253968,0.5253968,274.92062,NaN,practic_1,NaN,NaN,0.0,4.0,30.0
1,0,15,3,1,1,0,0.1,0.1,41.693123,NaN,practic_1,NaN,NaN,0.0,4.0,30.0
1,0,15,2,1,1,0,0.1,0.1,41.693123,NaN,practic_1,NaN,NaN,0.0,4.0,30.0
1,0,15,1,1,1,0,0.1,0.1,41.693123,NaN,practic_1,NaN,NaN,0.0,4.0,30.0
1,0,15,4,1,1,0,0.5253968,0.5253968,274.92062,NaN,practic_1,NaN,NaN,0.0,4.0,30.0
1,0,15,3,1,1,0,0.1,0.1,41.693123,NaN,practic_1,NaN,NaN,0.0,4.0,30.0
1,0,15,2,1,1,0,0.1,0.1,41.693123,NaN,practic_1,NaN,NaN,0.0,4.0,30.0
1,0,15,1,1,1,0,0.1,0.1,41.693123,NaN,practic_1,NaN,NaN,0.0,4.0,30.0
1,0,15,4,1,1,0,0.5253968,0.5253968,274.92062,NaN,practic_1,NaN,NaN,0.0,4.0,30.0
1,0,15,3,1,1,0,0.1,0.1,41.693123,NaN,practic_1,NaN,NaN,0.0,4.0,30.0
1,0,15,2,1,1,0,0.1,0.1,41.693123,NaN,practic_1,NaN,NaN,0.0,4.0,30.0
1,0,15,1,1,1,0,0.1,0.1,41.693123,NaN,practic_1,NaN,NaN,0.0,4.0,30.0
1,0,15,4,1,1,0,0.5253968,0.5253968,274.92062,NaN,practic_1,NaN,NaN,0.0,4.0,30.0
1,0,15,3,1,1,0,0.1,0.1,41.693123,NaN,practic_1,NaN,NaN,0.0,4.0,30.0
1,0,15,2,1,1,0,0.1,0.1,41.693123,NaN,practic_1,NaN,NaN,0.0,4.0,30.0
1,0,15,1,1,1,0,0.1,0.1,41.693123,NaN,practic_1,NaN,NaN,0.0,4.0,30.0
1,0,15,4,1,1,0,0.5253968,0.5253968,274.92062,NaN,practic_1,NaN,NaN,0.0,4.0,30.0
1,0,15,3,1,1,0,0.1,0.1,41.693123,NaN,practic_1,NaN,NaN,0.0,4.0,30.0
1,0,15,2,1,1,0,0.1,0.1,41.693123,NaN,practic_1,NaN,NaN,0.0,4.0,30.0
1,0,15,1,1,1,0,0.1,0.1,41.693123,NaN,practic_1,NaN,NaN,0.0,4.0,30.0
1,0,15,3,1,1,0,0.1,0.1,41.693123,NaN,practic_1,NaN,NaN,0.0,4.0,30.0
1,0,15,2,1,1,0,0.1,0.1,41.693123,NaN,practic_1,NaN,NaN,0.0,4.0,30.0
1,0,15,1,1,1,0,0.1,0.1,41.693123,NaN,practic_1,NaN,NaN,0.0,4.0,30.0
1,0,15,4,1,1,0,0.5253968,0.5253968,274.92062,NaN,practic_1,NaN,NaN,0.0,4.0,30.0
1,0,15,4,1,1,0,0.5253968,0.5253968,274.92062,NaN,practic_1,NaN,NaN,0.0,4.0,30.0
1,0,15,3,1,1,0,0.1,0.1,41.693123,NaN,practic_1,NaN,NaN,0.0,4.0,30.0
1,0,15,2,1,1,0,0.1,0.1,41.693123,NaN,practic_1,NaN,NaN,0.0,4.0,30.0
1,0,15,1,1,1,0,0.1,0.1,41.693123,NaN,practic_1,NaN,NaN,0.0,4.0,30.0
1,0,15,4,1,1,0,0.5253968,0.5253968,274.92062,NaN,practic_1,NaN,NaN,0.0,4.0,30.0
1,0,15,3,1,1,0,0.1,0.1,41.693123,NaN,practic_1,NaN,NaN,0.0,4.0,30.0
1,0,15,2,1,1,0,0.1,0.1,41.693123,NaN,practic_1,NaN,NaN,0.0,4.0,30.0
1,0,15,1,1,1,0,0.1,0.1,41.693123,NaN,practic_1,NaN,NaN,0.0,4.0,30.0
1,0,14,4,1,1,0,0.5253968,0.5253968,274.92062,NaN,practic_1,NaN,NaN,0.0,4.0,30.0
1,0,14,3,1,1,0,0.1,0.1,41.693123,NaN,practic_1,NaN,NaN,0.0,4.0,30.0
1,0,14,2,1,1,0,0.1,0.1,41.693123,NaN,practic_1,NaN,NaN,0.0,4.0,30.0
1,0,14,1,1,1,0,0.1,0.1,41.693123,NaN,practic_1,NaN,NaN,0.0,4.0,30.0
1,0,14,4,1,1,0,0.5253968,0.5253968,274.92062,NaN,practic_1,NaN,NaN,0.0,4.0,30.0
1,0,14,3,1,1,0,0.1,0.1,41.693123,NaN,practic_1,NaN,NaN,0.0,4.0,30.0
1,0,14,2,1,1,0,0.1,0.1,41.693123,NaN,practic_1,NaN,NaN,0.0,4.0,30.0
1,0,14,1,1,1,0,0.1,0.1,41.693123,NaN,practic_1,NaN,NaN,0.0,4.0,30.0
1,0,14,4,1,1,0,0.5253968,0.5253968,274.92062,NaN,practic_1,NaN,NaN,0.0,4.0,30.0
1,0,14,3,1,1,0,0.1,0.1,41.693123,NaN,practic_1,NaN,NaN,0.0,4.0,30.0
1,0,14,2,1,1,0,0.1,0.1,41.693123,NaN,practic_1,NaN,NaN,0.0,4.0,30.0
1,0,14,1,1,1,0,0.1,0.1,41.693123,NaN,practic_1,NaN,NaN,0.0,4.0,30.0
1,0,14,4,1,1,0,0.5253968,0.5253968,274.92062,NaN,practic_1,NaN,NaN,0.0,4.0,30.0
1,0,14,3,1,1,0,0.1,0.1,41.693123,NaN,practic_1,NaN,NaN,0.0,4.0,30.0
1,0,14,2,1,1,0,0.1,0.1,41.693123,NaN,practic_1,NaN,NaN,0.0,4.0,30.0
1,0,14,1,1,1,0,0.1,0.1,41.693123,NaN,practic_1,NaN,NaN,0.0,4.0,30.0
1,0,14,4,1,1,0,0.5253968,0.5253968,274.92062,NaN,practic_1,NaN,NaN,0.0,4.0,30.0
1,0,14,3,1,1,0,0.1,0.1,41.693123,NaN,practic_1,NaN,NaN,0.0,4.0,30.0
1,0,14,2,1,1,0,0.1,0.1,41.693123,NaN,practic_1,NaN,NaN,0.0,4.0,30.0
1,0,14,1,1,1,0,0.1,0.1,41.693123,NaN,practic_1,NaN,NaN,0.0,4.0,30.0
1,0,14,4,1,1,0,0.5253968,0.5253968,274.92062,NaN,practic_1,NaN,NaN,0.0,4.0,30.0
1,0,14,3,1,1,0,0.1,0.1,41.693123,NaN,practic_1,NaN,NaN,0.0,4.0,30.0
1,0,14,2,1,1,0,0.1,0.1,41.693123,NaN,practic_1,NaN,NaN,0.0,4.0,30.0
1,0,14,1,1,1,0,0.1,0.1,41.693123,NaN,practic_1,NaN,NaN,0.0,4.0,30.0
1,0,14,4,1,1,0,0.5253968,0.5253968,274.92062,NaN,practic_1,NaN,NaN,0.0,4.0,30.0
1,0,14,3,1,1,0,0.1,0.1,41.693123,NaN,practic_1,NaN,NaN,0.0,4.0,30.0
1,0,14,2,1,1,0,0.1,0.1,41.693123,NaN,practic_1,NaN,NaN,0.0,4.0,30.0
1,0,14,1,1,1,0,0.1,0.1,41.693123,NaN,practic_1,NaN,NaN,0.0,4.0,30.0
1,0,14,1,1,1,0,0.1,0.1,41.693123,NaN,practic_1,NaN,NaN,0.0,4.0,30.0
1,0,14,4,1,1,0,0.5253968,0.5253968,274.92062,NaN,practic_1,NaN,NaN,0.0,4.0,30.0
1,0,14,3,1,1,0,0.1,0.1,41.693123,NaN,practic_1,NaN,NaN,0.0,4.0,30.0
1,0,14,2,1,1,0,0.1,0.1,41.693123,NaN,practic_1,NaN,NaN,0.0,4.0,30.0
1,0,14,1,1,1,0,0.1,0.1,41.693123,NaN,practic_1,NaN,NaN,0.0,4.0,30.0
1,0,14,4,1,1,0,0.5253968,0.5253968,274.92062,NaN,practic_1,NaN,NaN,0.0,4.0,30.0
1,0,14,3,1,1,0,0.1,0.1,41.693123,NaN,practic_1,NaN,NaN,0.0,4.0,30.0
1,0,14,2,1,1,0,0.1,0.1,41.693123,NaN,practic_1,NaN,NaN,0.0,4.0,30.0
1,0,14,1,1,1,0,0.1,0.1,41.693123,NaN,practic_1,NaN,NaN,0.0,4.0,30.0
1,0,14,4,1,1,0,0.5253968,0.5253968,274.92062,NaN,practic_1,NaN,NaN,0.0,4.0,30.0
1,0,14,3,1,1,0,0.1,0.1,41.693123,NaN,practic_1,NaN,NaN,0.0,4.0,30.0
1,0,14,2,1,1,0,0.1,0.1,41.693123,NaN,practic_1,NaN,NaN,0.0,4.0,30.0
1,0,13,4,1,1,0,0.5253968,0.5253968,274.92062,NaN,practic_1,NaN,NaN,0.0,4.0,30.0
1,0,13,3,1,1,0,0.1,0.1,41.693123,NaN,practic_1,NaN,NaN,0.0,4.0,30.0
1,0,13,2,1,1,0,0.1,0.1,41.693123,NaN,practic_1,NaN,NaN,0.0,4.0,30.0
1,0,13,1,1,1,0,0.1,0.1,41.693123,NaN,practic_1,NaN,NaN,0.0,4.0,30.0
1,0,13,1,1,1,0,0.1,0.1,41.693123,NaN,practic_1,NaN,NaN,0.0,4.0,30.0
1,0,13,4,1,1,0,0.5253968,0.5253968,274.92062,NaN,practic_1,NaN,NaN,0.0,4.0,30.0
1,0,13,3,1,1,0,0.1,0.1,41.693123,NaN,practic_1,NaN,NaN,0.0,4.0,30.0
1,0,13,2,1,1,0,0.1,0.1,41.693123,NaN,practic_1,NaN,NaN,0.0,4.0,30.0
1,0,13,1,1,1,0,0.1,0.1,41.693123,NaN,practic_1,NaN,NaN,0.0,4.0,30.0
1,0,13,4,1,1,0,0.5253968,0.5253968,274.92062,NaN,practic_1,NaN,NaN,0.0,4.0,30.0
1,0,13,3,1,1,0,0.1,0.1,41.693123,NaN,practic_1,NaN,NaN,0.0,4.0,30.0
1,0,13,2,1,1,0,0.1,0.1,41.693123,NaN,practic_1,NaN,NaN,0.0,4.0,30.0
1,0,13,1,1,1,0,0.1,0.1,41.693123,NaN,practic_1,NaN,NaN,0.0,4.0,30.0
1,0,13,4,1,1,0,0.5253968,0.5253968,274.92062,NaN,practic_1,NaN,NaN,0.0,4.0,30.0
1,0,13,3,1,1,0,0.1,0.1,41.693123,NaN,practic_1,NaN,NaN,0.0,4.0,30.0
1,0,13,2,1,1,0,0.1,0.1,41.693123,NaN,practic_1,NaN,NaN,0.0,4.0,30.0
1,0,13,1,1,1,0,0.1,0.1,41.693123,NaN,practic_1,NaN,NaN,0.0,4.0,30.0
1,0,13,4,1,1,0,0.5253968,0.5253968,274.92062,NaN,practic_1,NaN,NaN,0.0,4.0,30.0
1,0,13,3,1,1,0,0.1,0.1,41.693123,NaN,practic_1,NaN,NaN,0.0,4.0,30.0
1,0,13,2,1,1,0,0.1,0.1,41.693123,NaN,practic_1,NaN,NaN,0.0,4.0,30.0
1,0,13,1,1,1,0,0.1,0.1,41.693123,NaN,practic_1,NaN,NaN,0.0,4.0,30.0
1,0,13,4,1,1,0,0.5253968,0.5253968,274.92062,NaN,practic_1,NaN,NaN,0.0,4.0,30.0
1,0,13,3,1,1,0,0.1,0.1,41.693123,NaN,practic_1,NaN,NaN,0.0,4.0,30.0
1,0,13,2,1,1,0,0.1,0.1,41.693123,NaN,practic_1,NaN,NaN,0.0,4.0,30.0
1,0,13,1,1,1,0,0.1,0.1,29.100529,NaN,practic_1,NaN,NaN,0.0,4.0,30.0
1,0,13,4,1,1,0,0.33650795,0.33650795,312.69843,NaN,practic_1,NaN,NaN,0.0,4.0,30.0
1,0,13,3,1,1,0,0.1,0.1,29.100529,NaN,practic_1,NaN,NaN,0.0,4.0,30.0
1,0,13,2,1,1,0,0.1,0.1,29.100529,NaN,practic_1,NaN,NaN,0.0,4.0,30.0
1,0,13,1,1,1,0,0.1,0.1,29.100529,NaN,practic_1,NaN,NaN,0.0,4.0,30.0
1,0,13,4,1,1,0,0.33650795,0.33650795,312.69843,NaN,practic_1,NaN,NaN,0.0,4.0,30.0
1,0,13,3,1,1,0,0.1,0.1,29.100529,NaN,practic_1,NaN,NaN,0.0,4.0,30.0
1,0,13,2,1,1,0,0.1,0.1,29.100529,NaN,practic_1,NaN,NaN,0.0,4.0,30.0
1,0,13,1,1,1,0,0.1,0.1,29.100529,NaN,practic_1,NaN,NaN,0.0,4.0,30.0
1,0,13,4,1,1,0,0.33650795,0.33650795,312.69843,NaN,practic_1,NaN,NaN,0.0,4.0,30.0
1,0,13,3,1,1,0,0.1,0.1,29.100529,NaN,practic_1,NaN,NaN,0.0,4.0,30.0
1,0,13,2,1,1,0,0.1,0.1,29.100529,NaN,practic_1,NaN,NaN,0.0,4.0,30.0
1,0,13,1,1,1,0,0.1,0.1,31.322754,NaN,practic_1,NaN,NaN,0.0,4.0,30.0
1,0,13,4,1,1,0,0.36984128,0.36984128,306.03174,NaN,practic_1,NaN,NaN,0.0,4.0,30.0
1,0,13,3,1,1,0,0.1,0.1,31.322754,NaN,practic_1,NaN,NaN,0.0,4.0,30.0
1,0,13,2,1,1,0,0.1,0.1,31.322754,NaN,practic_1,NaN,NaN,0.0,4.0,30.0
1,0,12,4,1,1,0,0.46825397,0.46825397,286.3492,NaN,practic_1,NaN,NaN,0.0,4.0,30.0
1,0,12,3,1,1,0,0.1,0.1,37.883602,NaN,practic_1,NaN,NaN,0.0,4.0,30.0
1,0,12,2,1,1,0,0.1,0.1,37.883602,NaN,practic_1,NaN,NaN,0.0,4.0,30.0
1,0,12,1,1,1,0,0.1,0.1,37.883602,NaN,practic_1,NaN,NaN,0.0,4.0,30.0
1,0,12,4,1,1,0,0.51746035,0.51746035,276.50793,NaN,practic_1,NaN,NaN,0.0,4.0,30.0
1,0,12,3,1,1,0,0.1,0.1,41.164024,NaN,practic_1,NaN,NaN,0.0,4.0,30.0
1,0,12,2,1,1,0,0.1,0.1,41.164024,NaN,practic_1,NaN,NaN,0.0,4.0,30.0
1,0,12,1,1,1,0,0.1,0.1,41.164024,NaN,practic_1,NaN,NaN,0.0,4.0,30.0
1,0,12,4,1,1,0,0.64444447,0.64444447,251.1111,NaN,practic_1,NaN,NaN,0.0,4.0,30.0
1,0,12,3,1,1,0,0.1,0.1,49.629627,NaN,practic_1,NaN,NaN,0.0,4.0,30.0
1,0,12,2,1,1,0,0.1,0.1,49.629627,NaN,practic_1,NaN,NaN,0.0,4.0,30.0
1,0,12,1,1,1,0,0.1,0.1,49.629627,NaN,practic_1,NaN,NaN,0.0,4.0,30.0
1,0,12,4,1,1,0,0.76666665,0.78571427,226.66667,NaN,practic_1,NaN,NaN,0.0,4.0,30.0
1,0,12,3,1,1,0,0.1,0.1,57.777775,NaN,practic_1,NaN,NaN,0.0,4.0,30.0
1,0,12,2,1,1,0,0.1,0.1,57.777775,NaN,practic_1,NaN,NaN,0.0,4.0,30.0
1,0,12,1,1,1,0,0.1,0.1,57.777775,NaN,practic_1,NaN,NaN,0.0,4.0,30.0
1,0,12,4,1,1,0,0.8047619,0.8047619,219.04762,NaN,practic_1,NaN,NaN,0.0,4.0,30.0
1,0,12,3,1,1,0,0.1,0.1,60.317455,NaN,practic_1,NaN,NaN,0.0,4.0,30.0
1,0,12,2,1,1,0,0.1,0.1,60.317455,NaN,practic_1,NaN,NaN,0.0,4.0,30.0
1,0,12,1,1,1,0,0.1,0.1,60.317455,NaN,practic_1,NaN,NaN,0.0,4.0,30.0
1,0,12,4,1,1,0,0.8269841,0.8269841,214.60318,NaN,practic_1,NaN,NaN,0.0,4.0,30.0
1,0,12,3,1,1,0,0.1,0.1,61.798935,NaN,practic_1,NaN,NaN,0.0,4.0,30.0
1,0,12,2,1,1,0,0.1,0.1,61.798935,NaN,practic_1,NaN,NaN,0.0,4.0,30.0
1,0,12,1,1,1,0,0.1,0.1,61.798935,NaN,practic_1,NaN,NaN,0.0,4.0,30.0
1,0,12,4,1,1,0,0.85555553,0.85555553,208.88889,NaN,practic_1,NaN,NaN,0.0,4.0,30.0
1,0,12,3,1,1,0,0.1,0.1,63.703697,NaN,practic_1,NaN,NaN,0.0,4.0,30.0
1,0,12,2,1,1,0,0.1,0.1,63.703697,NaN,practic_1,NaN,NaN,0.0,4.0,30.0
1,0,12,1,1,1,0,0.1,0.1,63.703697,NaN,practic_1,NaN,NaN,0.0,4.0,30.0
1,0,12,4,1,1,0,0.8730159,0.8730159,205.39682,NaN,practic_1,NaN,NaN,0.0,4.0,30.0
1,0,12,3,1,1,0,0.1,0.1,64.86772,NaN,practic_1,NaN,NaN,0.0,4.0,30.0
1,0,12,2,1,1,0,0.1,0.1,64.86772,NaN,practic_1,NaN,NaN,0.0,4.0,30.0
1,0,12,1,1,1,0,0.1,0.1,64.86772,NaN,practic_1,NaN,NaN,0.0,4.0,30.0
1,0,12,4,1,1,0,0.88095236,0.88095236,203.80952,NaN,practic_1,NaN,NaN,0.0,4.0,30.0
1,0,12,3,1,1,0,0.1,0.1,65.39682,NaN,practic_1,NaN,NaN,0.0,4.0,30.0
1,0,12,2,1,1,0,0.1,0.1,65.39682,NaN,practic_1,NaN,NaN,0.0,4.0,30.0
1,0,12,1,1,1,0,0.1,0.1,65.39682,NaN,practic_1,NaN,NaN,0.0,4.0,30.0
1,0,12,4,1,1,0,0.87777776,0.87777776,204.44446,NaN,practic_1,NaN,NaN,0.0,4.0,30.0
1,0,12,3,1,1,0,0.1,0.1,65.18518,NaN,practic_1,NaN,NaN,0.0,4.0,30.0
1,0,12,2,1,1,0,0.1,0.1,65.18518,NaN,practic_1,NaN,NaN,0.0,4.0,30.0
1,0,12,1,1,1,0,0.1,0.1,65.18518,NaN,practic_1,NaN,NaN,0.0,4.0,30.0
1,0,11,4,1,1,0,0.8031746,0.8031746,219.36507,NaN,practic_1,NaN,NaN,0.0,4.0,30.0
1,0,11,3,1,1,0,0.1,0.1,60.21164,NaN,practic_1,NaN,NaN,0.0,4.0,30.0
1,0,11,2,1,1,0,0.1,0.1,60.21164,NaN,practic_1,NaN,NaN,0.0,4.0,30.0
1,0,11,1,1,1,0,0.1,0.1,60.21164,NaN,practic_1,NaN,NaN,0.0,4.0,30.0
1,0,11,4,1,1,0,0.7285714,0.7285714,234.2857,NaN,practic_1,NaN,NaN,0.0,4.0,30.0
1,0,11,3,1,1,0,0.1,0.1,55.23809,NaN,practic_1,NaN,NaN,0.0,4.0,30.0
1,0,11,2,1,1,0,0.1,0.1,55.23809,NaN,practic_1,NaN,NaN,0.0,4.0,30.0
1,0,11,1,1,1,0,0.1,0.1,55.23809,NaN,practic_1,NaN,NaN,0.0,4.0,30.0
1,0,11,4,1,1,0,0.6825397,0.6825397,243.49205,NaN,practic_1,NaN,NaN,0.0,4.0,30.0
1,0,11,3,1,1,0,0.1,0.1,52.16931,NaN,practic_1,NaN,NaN,0.0,4.0,30.0
1,0,11,2,1,1,0,0.1,0.1,52.16931,NaN,practic_1,NaN,NaN,0.0,4.0,30.0
1,0,11,1,1,1,0,0.1,0.1,52.16931,NaN,practic_1,NaN,NaN,0.0,4.0,30.0
1,0,11,4,1,1,0,0.6142857,0.6142857,257.14285,NaN,practic_1,NaN,NaN,0.0,4.0,30.0
1,0,11,3,1,1,0,0.1,0.1,47.619045,NaN,practic_1,NaN,NaN,0.0,4.0,30.0
1,0,11,2,1,1,0,0.1,0.1,47.619045,NaN,practic_1,NaN,NaN,0.0,4.0,30.0
1,0,11,1,1,1,0,0.1,0.1,47.619045,NaN,practic_1,NaN,NaN,0.0,4.0,30.0
1,0,11,1,1,1,0,0.1,0.1,43.597885,NaN,practic_1,NaN,NaN,0.0,4.0,30.0
1,0,11,4,1,1,0,0.55396825,0.55396825,269.20636,NaN,practic_1,NaN,NaN,0.0,4.0,30.0
1,0,11,3,1,1,0,0.1,0.1,43.597885,NaN,practic_1,NaN,NaN,0.0,4.0,30.0
1,0,11,2,1,1,0,0.1,0.1,43.597885,NaN,practic_1,NaN,NaN,0.0,4.0,30.0
1,0,11,4,1,1,0,0.4031746,0.4031746,299.36508,NaN,practic_1,NaN,NaN,0.0,4.0,30.0
1,0,11,3,1,1,0,0.1,0.1,33.54497,NaN,practic_1,NaN,NaN,0.0,4.0,30.0
1,0,11,2,1,1,0,0.1,0.1,33.54497,NaN,practic_1,NaN,NaN,0.0,4.0,30.0
1,0,11,1,1,1,0,0.1,0.1,33.54497,NaN,practic_1,NaN,NaN,0.0,4.0,30.0
1,0,11,4,1,1,0,0.3793651,0.3793651,304.12698,NaN,practic_1,NaN,NaN,0.0,4.0,30.0
1,0,11,3,1,1,0,0.1,0.1,31.957674,NaN,practic_1,NaN,NaN,0.0,4.0,30.0
1,0,11,2,1,1,0,0.1,0.1,31.957674,NaN,practic_1,NaN,NaN,0.0,4.0,30.0
1,0,11,1,1,1,0,0.1,0.1,31.957674,NaN,practic_1,NaN,NaN,0.0,4.0,30.0
1,0,11,4,1,1,0,0.32698414,0.32698414,314.60315,NaN,practic_1,NaN,NaN,0.0,4.0,30.0
1,0,11,3,1,1,0,0.1,0.1,28.465609,NaN,practic_1,NaN,NaN,0.0,4.0,30.0
1,0,11,2,1,1,0,0.1,0.1,28.465609,NaN,practic_1,NaN,NaN,0.0,4.0,30.0
1,0,11,1,1,1,0,0.1,0.1,28.465609,NaN,practic_1,NaN,NaN,0.0,4.0,30.0
1,0,11,4,1,1,0,0.30634922,0.30634922,318.73016,NaN,practic_1,NaN,NaN,0.0,4.0,30.0
1,0,11,3,1,1,0,0.1,0.1,27.08995,NaN,practic_1,NaN,NaN,0.0,4.0,30.0
1,0,11,2,1,1,0,0.1,0.1,27.08995,NaN,practic_1,NaN,NaN,0.0,4.0,30.0
1,0,11,1,1,1,0,0.1,0.1,27.08995,NaN,practic_1,NaN,NaN,0.0,4.0,30.0
1,0,11,4,1,1,0,0.2825397,0.2825397,323.49207,NaN,practic_1,NaN,NaN,0.0,4.0,30.0
1,0,11,3,1,1,0,0.1,0.1,25.502645,NaN,practic_1,NaN,NaN,0.0,4.0,30.0
1,0,11,2,1,1,0,0.1,0.1,25.502645,NaN,practic_1,NaN,NaN,0.0,4.0,30.0
1,0,11,1,1,1,0,0.1,0.1,25.502645,NaN,practic_1,NaN,NaN,0.0,4.0,30.0
1,0,10,4,1,1,0,0.25396827,0.25396827,329.20636,NaN,practic_1,NaN,NaN,0.0,4.0,30.0
1,0,10,3,1,1,0,0.1,0.1,23.597885,NaN,practic_1,NaN,NaN,0.0,4.0,30.0
1,0,10,2,1,1,0,0.1,0.1,23.597885,NaN,practic_1,NaN,NaN,0.0,4.0,30.0
1,0,10,1,1,1,0,0.1,0.1,23.597885,NaN,practic_1,NaN,NaN,0.0,4.0,30.0
1,0,10,4,1,1,0,0.23015873,0.23015873,333.96826,NaN,practic_1,NaN,NaN,0.0,4.0,30.0
1,0,10,3,1,1,0,0.1,0.1,22.010582,NaN,practic_1,NaN,NaN,0.0,4.0,30.0
1,0,10,2,1,1,0,0.1,0.1,22.010582,NaN,practic_1,NaN,NaN,0.0,4.0,30.0
1,0,10,1,1,1,0,0.1,0.1,22.010582,NaN,practic_1,NaN,NaN,0.0,4.0,30.0
1,0,10,4,1,1,0,0.20476191,0.20476191,339.0476,NaN,practic_1,NaN,NaN,0.0,4.0,30.0
1,0,10,3,1,1,0,0.1,0.1,20.317461,NaN,practic_1,NaN,NaN,0.0,4.0,30.0
1,0,10,2,1,1,0,0.1,0.1,20.317461,NaN,practic_1,NaN,NaN,0.0,4.0,30.0
1,0,10,1,1,1,0,0.1,0.1,20.317461,NaN,practic_1,NaN,NaN,0.0,4.0,30.0
1,0,10,4,1,1,0,0.17619048,0.17619048,344.7619,NaN,practic_1,NaN,NaN,0.0,4.0,30.0
1,0,10,3,1,1,0,0.1,0.1,18.412699,NaN,practic_1,NaN,NaN,0.0,4.0,30.0
1,0,10,2,1,1,0,0.1,0.1,18.412699,NaN,practic_1,NaN,NaN,0.0,4.0,30.0
1,0,10,1,1,1,0,0.1,0.1,18.412699,NaN,practic_1,NaN,NaN,0.0,4.0,30.0
1,0,10,4,1,1,0,0.13809524,0.13809524,352.38095,NaN,practic_1,NaN,NaN,0.0,4.0,30.0
1,0,10,3,1,1,0,0.1,0.1,15.873016,NaN,practic_1,NaN,NaN,0.0,4.0,30.0
1,0,10,2,1,1,0,0.1,0.1,15.873016,NaN,practic_1,NaN,NaN,0.0,4.0,30.0
1,0,10,1,1,1,0,0.1,0.1,15.873016,NaN,practic_1,NaN,NaN,0.0,4.0,30.0
1,0,10,4,1,1,0,0.12063492,0.12063492,355.87302,NaN,practic_1,NaN,NaN,0.0,4.0,30.0
1,0,10,3,1,1,0,0.1,0.1,14.708994,NaN,practic_1,NaN,NaN,0.0,4.0,30.0
1,0,10,2,1,1,0,0.1,0.1,14.708994,NaN,practic_1,NaN,NaN,0.0,4.0,30.0
1,0,10,1,1,1,0,0.1,0.1,14.708994,NaN,practic_1,NaN,NaN,0.0,4.0,30.0
1,0,10,4,1,1,0,0.11111111,0.11111111,357.77777,NaN,practic_1,NaN,NaN,0.0,4.0,30.0
1,0,10,3,1,1,0,0.1,0.1,14.074074,NaN,practic_1,NaN,NaN,0.0,4.0,30.0
1,0,10,2,1,1,0,0.1,0.1,14.074074,NaN,practic_1,NaN,NaN,0.0,4.0,30.0
1,0,10,1,1,1,0,0.1,0.1,14.074074,NaN,practic_1,NaN,NaN,0.0,4.0,30.0
1,0,10,4,1,1,0,0.092063494,0.092063494,38.4127,NaN,practic_1,NaN,NaN,0.0,4.0,30.0
1,0,10,3,1,1,0,0.1,0.1,120.52909,NaN,practic_1,NaN,NaN,0.0,4.0,30.0
1,0,10,2,1,1,0,0.1,0.1,120.52909,NaN,practic_1,NaN,NaN,0.0,4.0,30.0
1,0,10,1,1,1,0,0.1,0.1,120.52909,NaN,practic_1,NaN,NaN,0.0,4.0,30.0
1,0,10,4,1,1,0,0.092063494,0.092063494,38.4127,NaN,practic_1,NaN,NaN,0.0,4.0,30.0
1,0,10,3,1,1,0,0.1,0.1,120.52909,NaN,practic_1,NaN,NaN,0.0,4.0,30.0
1,0,10,2,1,1,0,0.1,0.1,120.52909,NaN,practic_1,NaN,NaN,0.0,4.0,30.0
1,0,10,1,1,1,0,0.1,0.1,120.52909,NaN,practic_1,NaN,NaN,0.0,4.0,30.0
1,0,10,4,1,1,0,0.082539685,0.082539685,36.50794,NaN,practic_1,NaN,NaN,0.0,4.0,30.0
1,0,10,3,1,1,0,0.1,0.1,121.164024,NaN,practic_1,NaN,NaN,0.0,4.0,30.0
1,0,10,2,1,1,0,0.1,0.1,121.164024,NaN,practic_1,NaN,NaN,0.0,4.0,30.0
1,0,10,1,1,1,0,0.1,0.1,121.164024,NaN,practic_1,NaN,NaN,0.0,4.0,30.0
1,0,9,4,1,1,0,0.08095238,0.08095238,36.190475,NaN,practic_1,NaN,NaN,0.0,4.0,30.0
1,0,9,3,1,1,0,0.1,0.1,121.26984,NaN,practic_1,NaN,NaN,0.0,4.0,30.0
1,0,9,2,1,1,0,0.1,0.1,121.26984,NaN,practic_1,NaN,NaN,0.0,4.0,30.0
1,0,9,1,1,1,0,0.1,0.1,121.26984,NaN,practic_1,NaN,NaN,0.0,4.0,30.0
1,0,9,4,1,1,0,0.08095238,0.08095238,36.190475,NaN,practic_1,NaN,NaN,0.0,4.0,30.0
1,0,9,3,1,1,0,0.1,0.1,121.26984,NaN,practic_1,NaN,NaN,0.0,4.0,30.0
1,0,9,2,1,1,0,0.1,0.1,121.26984,NaN,practic_1,NaN,NaN,0.0,4.0,30.0
1,0,9,1,1,1,0,0.1,0.1,121.26984,NaN,practic_1,NaN,NaN,0.0,4.0,30.0
1,0,9,4,1,1,0,0.092063494,0.092063494,38.4127,NaN,practic_1,NaN,NaN,0.0,4.0,30.0
1,0,9,3,1,1,0,0.1,0.1,120.52909,NaN,practic_1,NaN,NaN,0.0,4.0,30.0
1,0,9,2,1,1,0,0.1,0.1,120.52909,NaN,practic_1,NaN,NaN,0.0,4.0,30.0
1,0,9,1,1,1,0,0.1,0.1,120.52909,NaN,practic_1,NaN,NaN,0.0,4.0,30.0
1,0,9,4,1,1,0,0.12063492,0.12063492,355.87302,NaN,practic_1,NaN,NaN,0.0,4.0,30.0
1,0,9,3,1,1,0,0.1,0.1,14.708994,NaN,practic_1,NaN,NaN,0.0,4.0,30.0
1,0,9,2,1,1,0,0.1,0.1,14.708994,NaN,practic_1,NaN,NaN,0.0,4.0,30.0
1,0,9,1,1,1,0,0.1,0.1,14.708994,NaN,practic_1,NaN,NaN,0.0,4.0,30.0
1,0,9,4,1,1,0,0.13174604,0.13174604,353.6508,NaN,practic_1,NaN,NaN,0.0,4.0,30.0
1,0,9,3,1,1,0,0.1,0.1,15.449737,NaN,practic_1,NaN,NaN,0.0,4.0,30.0
1,0,9,2,1,1,0,0.1,0.1,15.449737,NaN,practic_1,NaN,NaN,0.0,4.0,30.0
1,0,9,1,1,1,0,0.1,0.1,15.449737,NaN,practic_1,NaN,NaN,0.0,4.0,30.0
1,0,9,4,1,1,0,0.13650794,0.13650794,352.69843,NaN,practic_1,NaN,NaN,0.0,4.0,30.0
1,0,9,3,1,1,0,0.1,0.1,15.767198,NaN,practic_1,NaN,NaN,0.0,4.0,30.0
1,0,9,2,1,1,0,0.1,0.1,15.767198,NaN,practic_1,NaN,NaN,0.0,4.0,30.0
1,0,9,1,1,1,0,0.1,0.1,15.767198,NaN,practic_1,NaN,NaN,0.0,4.0,30.0
1,0,9,4,1,1,0,0.14444445,0.14444445,351.1111,NaN,practic_1,NaN,NaN,0.0,4.0,30.0
1,0,9,3,1,1,0,0.1,0.1,16.296297,NaN,practic_1,NaN,NaN,0.0,4.0,30.0
1,0,9,2,1,1,0,0.1,0.1,16.296297,NaN,practic_1,NaN,NaN,0.0,4.0,30.0
1,0,9,1,1,1,0,0.1,0.1,16.296297,NaN,practic_1,NaN,NaN,0.0,4.0,30.0
1,0,9,4,1,1,0,0.11904762,0.11904762,356.19046,NaN,practic_1,NaN,NaN,0.0,4.0,30.0
1,0,9,3,1,1,0,0.1,0.1,14.603175,NaN,practic_1,NaN,NaN,0.0,4.0,30.0
1,0,9,2,1,1,0,0.1,0.1,14.603175,NaN,practic_1,NaN,NaN,0.0,4.0,30.0
1,0,9,1,1,1,0,0.1,0.1,14.603175,NaN,practic_1,NaN,NaN,0.0,4.0,30.0
1,0,9,4,1,1,0,0.1015873,0.1015873,359.68253,NaN,practic_1,NaN,NaN,0.0,4.0,30.0
1,0,9,3,1,1,0,0.1,0.1,13.439153,NaN,practic_1,NaN,NaN,0.0,4.0,30.0
1,0,9,2,1,1,0,0.1,0.1,13.439153,NaN,practic_1,NaN,NaN,0.0,4.0,30.0
1,0,9,1,1,1,0,0.1,0.1,13.439153,NaN,practic_1,NaN,NaN,0.0,4.0,30.0
1,0,9,4,1,1,0,0.0984127,0.0984127,39.68254,NaN,practic_1,NaN,NaN,0.0,4.0,30.0
1,0,9,3,1,1,0,0.1,0.1,120.10581,NaN,practic_1,NaN,NaN,0.0,4.0,30.0
1,0,9,2,1,1,0,0.1,0.1,120.10581,NaN,practic_1,NaN,NaN,0.0,4.0,30.0
1,0,9,1,1,1,0,0.1,0.1,120.10581,NaN,practic_1,NaN,NaN,0.0,4.0,30.0
1,0,8,4,1,1,0,0.092063494,0.092063494,38.4127,NaN,practic_1,NaN,NaN,0.0,4.0,30.0
1,0,8,3,1,1,0,0.1,0.1,120.52909,NaN,practic_1,NaN,NaN,0.0,4.0,30.0
1,0,8,2,1,1,0,0.1,0.1,120.52909,NaN,practic_1,NaN,NaN,0.0,4.0,30.0
1,0,8,1,1,1,0,0.1,0.1,120.52909,NaN,practic_1,NaN,NaN,0.0,4.0,30.0
1,0,8,4,1,1,0,0.08095238,0.08095238,36.190475,NaN,practic_1,NaN,NaN,0.0,4.0,30.0
1,0,8,3,1,1,0,0.1,0.1,121.26984,NaN,practic_1,NaN,NaN,0.0,4.0,30.0
1,0,8,2,1,1,0,0.1,0.1,121.26984,NaN,practic_1,NaN,NaN,0.0,4.0,30.0
1,0,8,1,1,1,0,0.1,0.1,121.26984,NaN,practic_1,NaN,NaN,0.0,4.0,30.0
1,0,8,4,1,1,0,0.071428575,0.071428575,34.285717,NaN,practic_1,NaN,NaN,0.0,4.0,30.0
1,0,8,3,1,1,0,0.1,0.1,121.904755,NaN,practic_1,NaN,NaN,0.0,4.0,30.0
1,0,8,2,1,1,0,0.1,0.1,121.904755,NaN,practic_1,NaN,NaN,0.0,4.0,30.0
1,0,8,1,1,1,0,0.1,0.1,121.904755,NaN,practic_1,NaN,NaN,0.0,4.0,30.0
1,0,8,4,1,1,0,0.03968254,0.03968254,27.93651,NaN,practic_1,NaN,NaN,0.0,4.0,30.0
1,0,8,3,1,1,0,0.1,0.1,124.021164,NaN,practic_1,NaN,NaN,0.0,4.0,30.0
1,0,8,2,1,1,0,0.1,0.1,124.021164,NaN,practic_1,NaN,NaN,0.0,4.0,30.0
1,0,8,1,1,1,0,0.1,0.1,124.021164,NaN,practic_1,NaN,NaN,0.0,4.0,30.0
1,0,8,4,1,1,0,0.034920637,0.034920637,26.984125,NaN,practic_1,NaN,NaN,0.0,4.0,30.0
1,0,8,3,1,1,0,0.1,0.1,124.338615,NaN,practic_1,NaN,NaN,0.0,4.0,30.0
1,0,8,2,1,1,0,0.1,0.1,124.338615,NaN,practic_1,NaN,NaN,0.0,4.0,30.0
1,0,8,1,1,1,0,0.1,0.1,124.338615,NaN,practic_1,NaN,NaN,0.0,4.0,30.0
1,0,8,4,1,1,0,0.034920637,0.034920637,26.984125,NaN,practic_1,NaN,NaN,0.0,4.0,30.0
1,0,8,3,1,1,0,0.1,0.1,124.338615,NaN,practic_1,NaN,NaN,0.0,4.0,30.0
1,0,8,2,1,1,0,0.1,0.1,124.338615,NaN,practic_1,NaN,NaN,0.0,4.0,30.0
1,0,8,1,1,1,0,0.1,0.1,124.338615,NaN,practic_1,NaN,NaN,0.0,4.0,30.0
1,0,8,4,1,1,0,0.034920637,0.034920637,26.984125,NaN,practic_1,NaN,NaN,0.0,4.0,30.0
1,0,8,3,1,1,0,0.1,0.1,124.338615,NaN,practic_1,NaN,NaN,0.0,4.0,30.0
1,0,8,2,1,1,0,0.1,0.1,124.338615,NaN,practic_1,NaN,NaN,0.0,4.0,30.0
1,0,8,1,1,1,0,0.1,0.1,124.338615,NaN,practic_1,NaN,NaN,0.0,4.0,30.0
1,0,8,4,1,1,0,0.06984127,0.06984127,33.968254,NaN,practic_1,NaN,NaN,0.0,4.0,30.0
1,0,8,3,1,1,0,0.1,0.1,122.010574,NaN,practic_1,NaN,NaN,0.0,4.0,30.0
1,0,8,2,1,1,0,0.1,0.1,122.010574,NaN,practic_1,NaN,NaN,0.0,4.0,30.0
1,0,8,1,1,1,0,0.1,0.1,122.010574,NaN,practic_1,NaN,NaN,0.0,4.0,30.0
1,0,8,4,1,1,0,0.11111111,0.11111111,357.77777,NaN,practic_1,NaN,NaN,0.0,4.0,30.0
1,0,8,3,1,1,0,0.1,0.1,14.074074,NaN,practic_1,NaN,NaN,0.0,4.0,30.0
1,0,8,2,1,1,0,0.1,0.1,14.074074,NaN,practic_1,NaN,NaN,0.0,4.0,30.0
1,0,8,1,1,1,0,0.1,0.1,14.074074,NaN,practic_1,NaN,NaN,0.0,4.0,30.0
1,0,8,4,1,1,0,0.14603175,0.14603175,350.79364,NaN,practic_1,NaN,NaN,0.0,4.0,30.0
1,0,8,3,1,1,0,0.1,0.1,16.402119,NaN,practic_1,NaN,NaN,0.0,4.0,30.0
1,0,8,2,1,1,0,0.1,0.1,16.402119,NaN,practic_1,NaN,NaN,0.0,4.0,30.0
1,0,8,1,1,1,0,0.1,0.1,16.402119,NaN,practic_1,NaN,NaN,0.0,4.0,30.0
1,0,7,4,1,1,0,0.18730159,0.18730159,342.5397,NaN,practic_1,NaN,NaN,0.0,4.0,30.0
1,0,7,3,1,1,0,0.1,0.1,19.15344,NaN,practic_1,NaN,NaN,0.0,4.0,30.0
1,0,7,2,1,1,0,0.1,0.1,19.15344,NaN,practic_1,NaN,NaN,0.0,4.0,30.0
1,0,7,1,1,1,0,0.1,0.1,19.15344,NaN,practic_1,NaN,NaN,0.0,4.0,30.0
1,0,7,4,1,1,0,0.23015873,0.23015873,333.96826,NaN,practic_1,NaN,NaN,0.0,4.0,30.0
1,0,7,3,1,1,0,0.1,0.1,22.010582,NaN,practic_1,NaN,NaN,0.0,4.0,30.0
1,0,7,2,1,1,0,0.1,0.1,22.010582,NaN,practic_1,NaN,NaN,0.0,4.0,30.0
1,0,7,1,1,1,0,0.1,0.1,22.010582,NaN,practic_1,NaN,NaN,0.0,4.0,30.0
1,0,7,4,1,1,0,0.31269842,0.31269842,317.46033,NaN,practic_1,NaN,NaN,0.0,4.0,30.0
1,0,7,3,1,1,0,0.1,0.1,27.51323,NaN,practic_1,NaN,NaN,0.0,4.0,30.0
1,0,7,2,1,1,0,0.1,0.1,27.51323,NaN,practic_1,NaN,NaN,0.0,4.0,30.0
1,0,7,1,1,1,0,0.1,0.1,27.51323,NaN,practic_1,NaN,NaN,0.0,4.0,30.0
1,0,7,4,1,1,0,0.45079365,0.45079365,289.84128,NaN,practic_1,NaN,NaN,0.0,4.0,30.0
1,0,7,3,1,1,0,0.1,0.1,36.719574,NaN,practic_1,NaN,NaN,0.0,4.0,30.0
1,0,7,2,1,1,0,0.1,0.1,36.719574,NaN,practic_1,NaN,NaN,0.0,4.0,30.0
1,0,7,1,1,1,0,0.1,0.1,36.719574,NaN,practic_1,NaN,NaN,0.0,4.0,30.0
1,0,7,4,1,1,0,0.584127,0.584127,263.1746,NaN,practic_1,NaN,NaN,0.0,4.0,30.0
1,0,7,3,1,1,0,0.1,0.1,45.60847,NaN,practic_1,NaN,NaN,0.0,4.0,30.0
1,0,7,2,1,1,0,0.1,0.1,45.60847,NaN,practic_1,NaN,NaN,0.0,4.0,30.0
1,0,7,1,1,1,0,0.1,0.1,45.60847,NaN,practic_1,NaN,NaN,0.0,4.0,30.0
1,0,7,4,1,1,0,0.72063494,0.72063494,235.873,NaN,practic_1,NaN,NaN,0.0,4.0,30.0
1,0,7,3,1,1,0,0.1,0.1,54.708992,NaN,practic_1,NaN,NaN,0.0,4.0,30.0
1,0,7,2,1,1,0,0.1,0.1,54.708992,NaN,practic_1,NaN,NaN,0.0,4.0,30.0
1,0,7,1,1,1,0,0.1,0.1,54.708992,NaN,practic_1,NaN,NaN,0.0,4.0,30.0
1,0,7,4,1,1,0,0.784127,0.784127,223.17459,NaN,practic_1,NaN,NaN,0.0,4.0,30.0
1,0,7,3,1,1,0,0.1,0.1,58.9418,NaN,practic_1,NaN,NaN,0.0,4.0,30.0
1,0,7,2,1,1,0,0.1,0.1,58.9418,NaN,practic_1,NaN,NaN,0.0,4.0,30.0
1,0,7,1,1,1,0,0.1,0.1,58.9418,NaN,practic_1,NaN,NaN,0.0,4.0,30.0
1,0,7,2,1,1,0,0.1,0.1,61.481483,NaN,practic_1,NaN,NaN,0.0,4.0,30.0
1,0,7,1,1,1,0,0.1,0.1,61.481483,NaN,practic_1,NaN,NaN,0.0,4.0,30.0
1,0,7,4,1,1,0,0.82222223,0.82222223,215.55554,NaN,practic_1,NaN,NaN,0.0,4.0,30.0
1,0,7,3,1,1,0,0.1,0.1,61.481483,NaN,practic_1,NaN,NaN,0.0,4.0,30.0
1,0,7,4,1,1,0,0.85396826,0.85396826,209.20634,NaN,practic_1,NaN,NaN,0.0,4.0,30.0
1,0,7,3,1,1,0,0.1,0.1,63.59788,NaN,practic_1,NaN,NaN,0.0,4.0,30.0
1,0,7,2,1,1,0,0.1,0.1,63.59788,NaN,practic_1,NaN,NaN,0.0,4.0,30.0
1,0,7,1,1,1,0,0.1,0.1,63.59788,NaN,practic_1,NaN,NaN,0.0,4.0,30.0
1,0,7,4,1,1,0,0.88095236,0.88095236,203.80952,NaN,practic_1,NaN,NaN,0.0,4.0,30.0
1,0,7,3,1,1,0,0.1,0.1,65.39682,NaN,practic_1,NaN,NaN,0.0,4.0,30.0
1,0,7,2,1,1,0,0.1,0.1,65.39682,NaN,practic_1,NaN,NaN,0.0,4.0,30.0
1,0,7,1,1,1,0,0.1,0.1,65.39682,NaN,practic_1,NaN,NaN,0.0,4.0,30.0
1,0,6,4,1,1,0,0.9126984,0.9126984,197.46031,NaN,practic_1,NaN,NaN,0.0,4.0,30.0
1,0,6,3,1,1,0,0.1,0.1,67.51323,NaN,practic_1,NaN,NaN,0.0,4.0,30.0
1,0,6,2,1,1,0,0.1,0.1,67.51323,NaN,practic_1,NaN,NaN,0.0,4.0,30.0
1,0,6,1,1,1,0,0.1,0.1,67.51323,NaN,practic_1,NaN,NaN,0.0,4.0,30.0
1,0,6,4,1,1,0,0.9349206,0.9349206,193.01587,NaN,practic_1,NaN,NaN,0.0,4.0,30.0
1,0,6,3,1,1,0,0.1,0.1,68.994705,NaN,practic_1,NaN,NaN,0.0,4.0,30.0
1,0,6,2,1,1,0,0.1,0.1,68.994705,NaN,practic_1,NaN,NaN,0.0,4.0,30.0
1,0,6,1,1,1,0,0.1,0.1,68.994705,NaN,practic_1,NaN,NaN,0.0,4.0,30.0
1,0,6,4,1,1,0,0.9380952,0.9380952,192.38095,NaN,practic_1,NaN,NaN,0.0,4.0,30.0
1,0,6,3,1,1,0,0.1,0.1,69.20635,NaN,practic_1,NaN,NaN,0.0,4.0,30.0
1,0,6,2,1,1,0,0.1,0.1,69.20635,NaN,practic_1,NaN,NaN,0.0,4.0,30.0
1,0,6,1,1,1,0,0.1,0.1,69.20635,NaN,practic_1,NaN,NaN,0.0,4.0,30.0
1,0,6,4,1,1,0,0.9444444,0.9444444,191.11111,NaN,practic_1,NaN,NaN,0.0,4.0,30.0
1,0,6,3,1,1,0,0.1,0.1,69.62963,NaN,practic_1,NaN,NaN,0.0,4.0,30.0
1,0,6,2,1,1,0,0.1,0.1,69.62963,NaN,practic_1,NaN,NaN,0.0,4.0,30.0
1,0,6,1,1,1,0,0.1,0.1,69.62963,NaN,practic_1,NaN,NaN,0.0,4.0,30.0
1,0,6,4,1,1,0,0.9539682,0.9539682,189.20634,NaN,practic_1,NaN,NaN,0.0,4.0,30.0
1,0,6,3,1,1,0,0.1,0.1,70.26455,NaN,practic_1,NaN,NaN,0.0,4.0,30.0
1,0,6,2,1,1,0,0.1,0.1,70.26455,NaN,practic_1,NaN,NaN,0.0,4.0,30.0
1,0,6,1,1,1,0,0.1,0.1,70.26455,NaN,practic_1,NaN,NaN,0.0,4.0,30.0
1,0,6,4,1,1,0,0.96031743,0.96031743,187.93651,NaN,practic_1,NaN,NaN,0.0,4.0,30.0
1,0,6,3,1,1,0,0.1,0.1,70.68783,NaN,practic_1,NaN,NaN,0.0,4.0,30.0
1,0,6,2,1,1,0,0.1,0.1,70.68783,NaN,practic_1,NaN,NaN,0.0,4.0,30.0
1,0,6,1,1,1,0,0.1,0.1,70.68783,NaN,practic_1,NaN,NaN,0.0,4.0,30.0
1,0,6,4,1,1,0,0.96507937,0.96507937,186.98412,NaN,practic_1,NaN,NaN,0.0,4.0,30.0
1,0,6,3,1,1,0,0.1,0.1,71.00529,NaN,practic_1,NaN,NaN,0.0,4.0,30.0
1,0,6,2,1,1,0,0.1,0.1,71.00529,NaN,practic_1,NaN,NaN,0.0,4.0,30.0
1,0,6,1,1,1,0,0.1,0.1,71.00529,NaN,practic_1,NaN,NaN,0.0,4.0,30.0
1,0,6,4,1,1,0,0.96984124,0.96984124,186.03175,NaN,practic_1,NaN,NaN,0.0,4.0,30.0
1,0,6,3,1,1,0,0.1,0.1,71.322754,NaN,practic_1,NaN,NaN,0.0,4.0,30.0
1,0,6,2,1,1,0,0.1,0.1,71.322754,NaN,practic_1,NaN,NaN,0.0,4.0,30.0
1,0,6,1,1,1,0,0.1,0.1,71.322754,NaN,practic_1,NaN,NaN,0.0,4.0,30.0
1,0,6,4,1,1,0,0.984127,0.984127,183.17459,NaN,practic_1,NaN,NaN,0.0,4.0,30.0
1,0,6,3,1,1,0,0.1,0.1,72.27513,NaN,practic_1,NaN,NaN,0.0,4.0,30.0
1,0,6,2,1,1,0,0.1,0.1,72.27513,NaN,practic_1,NaN,NaN,0.0,4.0,30.0
1,0,6,1,1,1,0,0.1,0.1,72.27513,NaN,practic_1,NaN,NaN,0.0,4.0,30.0
1,0,6,4,1,1,0,0.9904762,0.9904762,181.90475,NaN,practic_1,NaN,NaN,0.0,4.0,30.0
1,0,6,3,1,1,0,0.1,0.1,72.69841,NaN,practic_1,NaN,NaN,0.0,4.0,30.0
1,0,6,2,1,1,0,0.1,0.1,72.69841,NaN,practic_1,NaN,NaN,0.0,4.0,30.0
1,0,6,1,1,1,0,0.1,0.1,72.69841,NaN,practic_1,NaN,NaN,0.0,4.0,30.0
1,0,5,4,1,1,0,0.9904762,0.9904762,181.90475,NaN,practic_1,NaN,NaN,0.0,4.0,30.0
1,0,5,3,1,1,0,0.1,0.1,72.69841,NaN,practic_1,NaN,NaN,0.0,4.0,30.0
1,0,5,2,1,1,0,0.1,0.1,72.69841,NaN,practic_1,NaN,NaN,0.0,4.0,30.0
1,0,5,1,1,1,0,0.1,0.1,72.69841,NaN,practic_1,NaN,NaN,0.0,4.0,30.0
1,0,5,4,1,1,0,0.9904762,0.9904762,181.90475,NaN,practic_1,NaN,NaN,0.0,4.0,30.0
1,0,5,3,1,1,0,0.1,0.1,72.69841,NaN,practic_1,NaN,NaN,0.0,4.0,30.0
1,0,5,2,1,1,0,0.1,0.1,72.69841,NaN,practic_1,NaN,NaN,0.0,4.0,30.0
1,0,5,1,1,1,0,0.1,0.1,72.69841,NaN,practic_1,NaN,NaN,0.0,4.0,30.0
1,0,5,4,1,1,0,0.9904762,0.9904762,181.90475,NaN,practic_1,NaN,NaN,0.0,4.0,30.0
1,0,5,3,1,1,0,0.1,0.1,72.69841,NaN,practic_1,NaN,NaN,0.0,4.0,30.0
1,0,5,2,1,1,0,0.1,0.1,72.69841,NaN,practic_1,NaN,NaN,0.0,4.0,30.0
1,0,5,1,1,1,0,0.1,0.1,72.69841,NaN,practic_1,NaN,NaN,0.0,4.0,30.0
1,0,5,4,1,1,0,0.99841267,0.99841267,180.31746,NaN,practic_1,NaN,NaN,0.0,4.0,30.0
1,0,5,3,1,1,0,0.1,0.1,73.22751,NaN,practic_1,NaN,NaN,0.0,4.0,30.0
1,0,5,2,1,1,0,0.1,0.1,73.22751,NaN,practic_1,NaN,NaN,0.0,4.0,30.0
1,0,5,1,1,1,0,0.1,0.1,73.22751,NaN,practic_1,NaN,NaN,0.0,4.0,30.0
1,0,5,4,1,1,0,1.0,1.0,180.0,NaN,practic_1,NaN,NaN,0.0,4.0,30.0
1,0,5,3,1,1,0,0.1,0.1,73.333336,NaN,practic_1,NaN,NaN,0.0,4.0,30.0
1,0,5,2,1,1,0,0.1,0.1,73.333336,NaN,practic_1,NaN,NaN,0.0,4.0,30.0
1,0,5,1,1,1,0,0.1,0.1,73.333336,NaN,practic_1,NaN,NaN,0.0,4.0,30.0
1,0,5,4,1,1,0,1.0,1.0,180.0,NaN,practic_1,NaN,NaN,0.0,4.0,30.0
1,0,5,3,1,1,0,0.1,0.1,73.333336,NaN,practic_1,NaN,NaN,0.0,4.0,30.0
1,0,5,2,1,1,0,0.1,0.1,73.333336,NaN,practic_1,NaN,NaN,0.0,4.0,30.0
1,0,5,1,1,1,0,0.1,0.1,73.333336,NaN,practic_1,NaN,NaN,0.0,4.0,30.0
1,0,5,4,1,1,0,0.9238095,0.9238095,195.23808,NaN,practic_1,NaN,NaN,0.0,4.0,30.0
1,0,5,3,1,1,0,0.1,0.1,68.25397,NaN,practic_1,NaN,NaN,0.0,4.0,30.0
1,0,5,2,1,1,0,0.1,0.1,68.25397,NaN,practic_1,NaN,NaN,0.0,4.0,30.0
1,0,5,1,1,1,0,0.1,0.1,68.25397,NaN,practic_1,NaN,NaN,0.0,4.0,30.0
1,0,5,4,1,1,0,0.74603176,0.74603176,230.79364,NaN,practic_1,NaN,NaN,0.0,4.0,30.0
1,0,5,3,1,1,0,0.1,0.1,56.40212,NaN,practic_1,NaN,NaN,0.0,4.0,30.0
1,0,5,2,1,1,0,0.1,0.1,56.40212,NaN,practic_1,NaN,NaN,0.0,4.0,30.0
1,0,5,1,1,1,0,0.1,0.1,56.40212,NaN,practic_1,NaN,NaN,0.0,4.0,30.0
1,0,5,4,1,1,0,0.51428574,0.51428574,277.14285,NaN,practic_1,NaN,NaN,0.0,4.0,30.0
1,0,5,3,1,1,0,0.1,0.1,40.952385,NaN,practic_1,NaN,NaN,0.0,4.0,30.0
1,0,5,2,1,1,0,0.1,0.1,40.952385,NaN,practic_1,NaN,NaN,0.0,4.0,30.0
1,0,5,1,1,1,0,0.1,0.1,40.952385,NaN,practic_1,NaN,NaN,0.0,4.0,30.0
1,0,5,4,1,1,0,0.3984127,0.3984127,300.31744,NaN,practic_1,NaN,NaN,0.0,4.0,30.0
1,0,5,3,1,1,0,0.1,0.1,33.227516,NaN,practic_1,NaN,NaN,0.0,4.0,30.0
1,0,5,2,1,1,0,0.1,0.1,33.227516,NaN,practic_1,NaN,NaN,0.0,4.0,30.0
1,0,5,1,1,1,0,0.1,0.1,33.227516,NaN,practic_1,NaN,NaN,0.0,4.0,30.0
1,0,4,4,1,1,0,0.33968255,0.33968255,312.06348,NaN,practic_1,NaN,NaN,0.0,4.0,30.0
1,0,4,3,1,1,0,0.1,0.1,29.31217,NaN,practic_1,NaN,NaN,0.0,4.0,30.0
1,0,4,2,1,1,0,0.1,0.1,29.31217,NaN,practic_1,NaN,NaN,0.0,4.0,30.0
1,0,4,1,1,1,0,0.1,0.1,29.31217,NaN,practic_1,NaN,NaN,0.0,4.0,30.0
1,0,4,4,1,1,0,0.26507938,0.26507938,326.98413,NaN,practic_1,NaN,NaN,0.0,4.0,30.0
1,0,4,3,1,1,0,0.1,0.1,24.338627,NaN,practic_1,NaN,NaN,0.0,4.0,30.0
1,0,4,2,1,1,0,0.1,0.1,24.338627,NaN,practic_1,NaN,NaN,0.0,4.0,30.0
1,0,4,1,1,1,0,0.1,0.1,24.338627,NaN,practic_1,NaN,NaN,0.0,4.0,30.0
1,0,4,4,1,1,0,0.22698413,0.22698413,334.60318,NaN,practic_1,NaN,NaN,0.0,4.0,30.0
1,0,4,3,1,1,0,0.1,0.1,21.79894,NaN,practic_1,NaN,NaN,0.0,4.0,30.0
1,0,4,2,1,1,0,0.1,0.1,21.79894,NaN,practic_1,NaN,NaN,0.0,4.0,30.0
1,0,4,1,1,1,0,0.1,0.1,21.79894,NaN,practic_1,NaN,NaN,0.0,4.0,30.0
1,0,4,4,1,1,0,0.22539683,0.22539683,334.92065,NaN,practic_1,NaN,NaN,0.0,4.0,30.0
1,0,4,3,1,1,0,0.1,0.1,21.693123,NaN,practic_1,NaN,NaN,0.0,4.0,30.0
1,0,4,2,1,1,0,0.1,0.1,21.693123,NaN,practic_1,NaN,NaN,0.0,4.0,30.0
1,0,4,1,1,1,0,0.1,0.1,21.693123,NaN,practic_1,NaN,NaN,0.0,4.0,30.0
1,0,4,4,1,1,0,0.1904762,0.18888889,341.90475,NaN,practic_1,NaN,NaN,0.0,4.0,30.0
1,0,4,3,1,1,0,0.1,0.1,19.36508,NaN,practic_1,NaN,NaN,0.0,4.0,30.0
1,0,4,2,1,1,0,0.1,0.1,19.36508,NaN,practic_1,NaN,NaN,0.0,4.0,30.0
1,0,4,1,1,1,0,0.1,0.1,19.36508,NaN,practic_1,NaN,NaN,0.0,4.0,30.0
1,0,4,4,1,1,0,0.16984127,0.16984127,346.03174,NaN,practic_1,NaN,NaN,0.0,4.0,30.0
1,0,4,3,1,1,0,0.1,0.1,17.98942,NaN,practic_1,NaN,NaN,0.0,4.0,30.0
1,0,4,2,1,1,0,0.1,0.1,17.98942,NaN,practic_1,NaN,NaN,0.0,4.0,30.0
1,0,4,1,1,1,0,0.1,0.1,17.98942,NaN,practic_1,NaN,NaN,0.0,4.0,30.0
1,0,4,4,1,1,0,0.16507937,0.16507937,346.98413,NaN,practic_1,NaN,NaN,0.0,4.0,30.0
1,0,4,3,1,1,0,0.1,0.1,17.671959,NaN,practic_1,NaN,NaN,0.0,4.0,30.0
1,0,4,2,1,1,0,0.1,0.1,17.671959,NaN,practic_1,NaN,NaN,0.0,4.0,30.0
1,0,4,1,1,1,0,0.1,0.1,17.671959,NaN,practic_1,NaN,NaN,0.0,4.0,30.0
1,0,4,4,1,1,0,0.16507937,0.16507937,346.98413,NaN,practic_1,NaN,NaN,0.0,4.0,30.0
1,0,4,3,1,1,0,0.1,0.1,17.671959,NaN,practic_1,NaN,NaN,0.0,4.0,30.0
1,0,4,2,1,1,0,0.1,0.1,17.671959,NaN,practic_1,NaN,NaN,0.0,4.0,30.0
1,0,4,1,1,1,0,0.1,0.1,17.671959,NaN,practic_1,NaN,NaN,0.0,4.0,30.0
1,0,4,4,1,1,0,0.13333334,0.13333334,353.33334,NaN,practic_1,NaN,NaN,0.0,4.0,30.0
1,0,4,3,1,1,0,0.1,0.1,15.555556,NaN,practic_1,NaN,NaN,0.0,4.0,30.0
1,0,4,2,1,1,0,0.1,0.1,15.555556,NaN,practic_1,NaN,NaN,0.0,4.0,30.0
1,0,4,1,1,1,0,0.1,0.1,15.555556,NaN,practic_1,NaN,NaN,0.0,4.0,30.0
1,0,4,4,1,1,0,0.13174604,0.13174604,353.6508,NaN,practic_1,NaN,NaN,0.0,4.0,30.0
1,0,4,3,1,1,0,0.1,0.1,15.449737,NaN,practic_1,NaN,NaN,0.0,4.0,30.0
1,0,4,2,1,1,0,0.1,0.1,15.449737,NaN,practic_1,NaN,NaN,0.0,4.0,30.0
1,0,4,1,1,1,0,0.1,0.1,15.449737,NaN,practic_1,NaN,NaN,0.0,4.0,30.0
1,0,3,4,1,1,0,0.13174604,0.13174604,353.6508,NaN,practic_1,NaN,NaN,0.0,4.0,30.0
1,0,3,3,1,1,0,0.1,0.1,15.449737,NaN,practic_1,NaN,NaN,0.0,4.0,30.0
1,0,3,2,1,1,0,0.1,0.1,15.449737,NaN,practic_1,NaN,NaN,0.0,4.0,30.0
1,0,3,1,1,1,0,0.1,0.1,15.449737,NaN,practic_1,NaN,NaN,0.0,4.0,30.0
1,0,3,4,1,1,0,0.13174604,0.13174604,353.6508,NaN,practic_1,NaN,NaN,0.0,4.0,30.0
1,0,3,3,1,1,0,0.1,0.1,15.449737,NaN,practic_1,NaN,NaN,0.0,4.0,30.0
1,0,3,2,1,1,0,0.1,0.1,15.449737,NaN,practic_1,NaN,NaN,0.0,4.0,30.0
1,0,3,1,1,1,0,0.1,0.1,15.449737,NaN,practic_1,NaN,NaN,0.0,4.0,30.0
1,0,3,4,1,1,0,0.13015874,0.13015874,353.96826,NaN,practic_1,NaN,NaN,0.0,4.0,30.0
1,0,3,3,1,1,0,0.1,0.1,15.343916,NaN,practic_1,NaN,NaN,0.0,4.0,30.0
1,0,3,2,1,1,0,0.1,0.1,15.343916,NaN,practic_1,NaN,NaN,0.0,4.0,30.0
1,0,3,1,1,1,0,0.1,0.1,15.343916,NaN,practic_1,NaN,NaN,0.0,4.0,30.0
1,0,3,4,1,1,0,0.13015874,0.13015874,353.96826,NaN,practic_1,NaN,NaN,0.0,4.0,30.0
1,0,3,3,1,1,0,0.1,0.1,15.343916,NaN,practic_1,NaN,NaN,0.0,4.0,30.0
1,0,3,2,1,1,0,0.1,0.1,15.343916,NaN,practic_1,NaN,NaN,0.0,4.0,30.0
1,0,3,1,1,1,0,0.1,0.1,15.343916,NaN,practic_1,NaN,NaN,0.0,4.0,30.0
1,0,3,4,1,1,0,0.12698413,0.12698413,354.60318,NaN,practic_1,NaN,NaN,0.0,4.0,30.0
1,0,3,3,1,1,0,0.1,0.1,15.132277,NaN,practic_1,NaN,NaN,0.0,4.0,30.0
1,0,3,2,1,1,0,0.1,0.1,15.132277,NaN,practic_1,NaN,NaN,0.0,4.0,30.0
1,0,3,1,1,1,0,0.1,0.1,15.132277,NaN,practic_1,NaN,NaN,0.0,4.0,30.0
1,0,3,4,1,1,0,0.11111111,0.11111111,357.77777,NaN,practic_1,NaN,NaN,0.0,4.0,30.0
1,0,3,3,1,1,0,0.1,0.1,14.074074,NaN,practic_1,NaN,NaN,0.0,4.0,30.0
1,0,3,2,1,1,0,0.1,0.1,14.074074,NaN,practic_1,NaN,NaN,0.0,4.0,30.0
1,0,3,1,1,1,0,0.1,0.1,14.074074,NaN,practic_1,NaN,NaN,0.0,4.0,30.0
1,0,3,4,1,1,0,0.11111111,0.11111111,357.77777,NaN,practic_1,NaN,NaN,0.0,4.0,30.0
1,0,3,3,1,1,0,0.1,0.1,14.074074,NaN,practic_1,NaN,NaN,0.0,4.0,30.0
1,0,3,2,1,1,0,0.1,0.1,14.074074,NaN,practic_1,NaN,NaN,0.0,4.0,30.0
1,0,3,1,1,1,0,0.1,0.1,14.074074,NaN,practic_1,NaN,NaN,0.0,4.0,30.0
1,0,3,4,1,1,0,0.11111111,0.11111111,357.77777,NaN,practic_1,NaN,NaN,0.0,4.0,30.0
1,0,3,3,1,1,0,0.1,0.1,14.074074,NaN,practic_1,NaN,NaN,0.0,4.0,30.0
1,0,3,2,1,1,0,0.1,0.1,14.074074,NaN,practic_1,NaN,NaN,0.0,4.0,30.0
1,0,3,1,1,1,0,0.1,0.1,14.074074,NaN,practic_1,NaN,NaN,0.0,4.0,30.0
1,0,3,4,1,1,0,0.10634921,0.10634921,358.73016,NaN,practic_1,NaN,NaN,0.0,4.0,30.0
1,0,3,3,1,1,0,0.1,0.1,13.756614,NaN,practic_1,NaN,NaN,0.0,4.0,30.0
1,0,3,2,1,1,0,0.1,0.1,13.756614,NaN,practic_1,NaN,NaN,0.0,4.0,30.0
1,0,3,1,1,1,0,0.1,0.1,13.756614,NaN,practic_1,NaN,NaN,0.0,4.0,30.0
1,0,3,4,1,1,0,0.10634921,0.10634921,358.73016,NaN,practic_1,NaN,NaN,0.0,4.0,30.0
1,0,3,3,1,1,0,0.1,0.1,13.756614,NaN,practic_1,NaN,NaN,0.0,4.0,30.0
1,0,3,2,1,1,0,0.1,0.1,13.756614,NaN,practic_1,NaN,NaN,0.0,4.0,30.0
1,0,3,1,1,1,0,0.1,0.1,13.756614,NaN,practic_1,NaN,NaN,0.0,4.0,30.0
1,0,2,4,1,1,0,0.10634921,0.10634921,358.73016,NaN,practic_1,NaN,NaN,0.0,4.0,30.0
1,0,2,3,1,1,0,0.1,0.1,13.756614,NaN,practic_1,NaN,NaN,0.0,4.0,30.0
1,0,2,2,1,1,0,0.1,0.1,13.756614,NaN,practic_1,NaN,NaN,0.0,4.0,30.0
1,0,2,1,1,1,0,0.1,0.1,13.756614,NaN,practic_1,NaN,NaN,0.0,4.0,30.0
1,0,2,4,1,1,0,0.10634921,0.10634921,358.73016,NaN,practic_1,NaN,NaN,0.0,4.0,30.0
1,0,2,3,1,1,0,0.1,0.1,13.756614,NaN,practic_1,NaN,NaN,0.0,4.0,30.0
1,0,2,2,1,1,0,0.1,0.1,13.756614,NaN,practic_1,NaN,NaN,0.0,4.0,30.0
1,0,2,1,1,1,0,0.1,0.1,13.756614,NaN,practic_1,NaN,NaN,0.0,4.0,30.0
1,0,2,4,1,1,0,0.10634921,0.10634921,358.73016,NaN,practic_1,NaN,NaN,0.0,4.0,30.0
1,0,2,3,1,1,0,0.1,0.1,13.756614,NaN,practic_1,NaN,NaN,0.0,4.0,30.0
1,0,2,2,1,1,0,0.1,0.1,13.756614,NaN,practic_1,NaN,NaN,0.0,4.0,30.0
1,0,2,1,1,1,0,0.1,0.1,13.756614,NaN,practic_1,NaN,NaN,0.0,4.0,30.0
1,0,2,4,1,1,0,0.10634921,0.10634921,358.73016,NaN,practic_1,NaN,NaN,0.0,4.0,30.0
1,0,2,3,1,1,0,0.1,0.1,13.756614,NaN,practic_1,NaN,NaN,0.0,4.0,30.0
1,0,2,2,1,1,0,0.1,0.1,13.756614,NaN,practic_1,NaN,NaN,0.0,4.0,30.0
1,0,2,1,1,1,0,0.1,0.1,13.756614,NaN,practic_1,NaN,NaN,0.0,4.0,30.0
1,0,2,4,1,1,0,0.10634921,0.10634921,358.73016,NaN,practic_1,NaN,NaN,0.0,4.0,30.0
1,0,2,3,1,1,0,0.1,0.1,13.756614,NaN,practic_1,NaN,NaN,0.0,4.0,30.0
1,0,2,2,1,1,0,0.1,0.1,13.756614,NaN,practic_1,NaN,NaN,0.0,4.0,30.0
1,0,2,1,1,1,0,0.1,0.1,13.756614,NaN,practic_1,NaN,NaN,0.0,4.0,30.0
1,0,2,4,1,1,0,0.10634921,0.10634921,358.73016,NaN,practic_1,NaN,NaN,0.0,4.0,30.0
1,0,2,3,1,1,0,0.1,0.1,13.756614,NaN,practic_1,NaN,NaN,0.0,4.0,30.0
1,0,2,2,1,1,0,0.1,0.1,13.756614,NaN,practic_1,NaN,NaN,0.0,4.0,30.0
1,0,2,1,1,1,0,0.1,0.1,13.756614,NaN,practic_1,NaN,NaN,0.0,4.0,30.0
1,0,2,4,1,1,0,0.10634921,0.10634921,358.73016,NaN,practic_1,NaN,NaN,0.0,4.0,30.0
1,0,2,3,1,1,0,0.1,0.1,13.756614,NaN,practic_1,NaN,NaN,0.0,4.0,30.0
1,0,2,2,1,1,0,0.1,0.1,13.756614,NaN,practic_1,NaN,NaN,0.0,4.0,30.0
1,0,2,1,1,1,0,0.1,0.1,13.756614,NaN,practic_1,NaN,NaN,0.0,4.0,30.0
1,0,2,4,1,1,0,0.10634921,0.10634921,358.73016,NaN,practic_1,NaN,NaN,0.0,4.0,30.0
1,0,2,3,1,1,0,0.1,0.1,13.756614,NaN,practic_1,NaN,NaN,0.0,4.0,30.0
1,0,2,2,1,1,0,0.1,0.1,13.756614,NaN,practic_1,NaN,NaN,0.0,4.0,30.0
1,0,2,1,1,1,0,0.1,0.1,13.756614,NaN,practic_1,NaN,NaN,0.0,4.0,30.0
1,0,2,4,1,1,0,0.10634921,0.10634921,358.73016,NaN,practic_1,NaN,NaN,0.0,4.0,30.0
1,0,2,3,1,1,0,0.1,0.1,13.756614,NaN,practic_1,NaN,NaN,0.0,4.0,30.0
1,0,2,2,1,1,0,0.1,0.1,13.756614,NaN,practic_1,NaN,NaN,0.0,4.0,30.0
1,0,2,1,1,1,0,0.1,0.1,13.756614,NaN,practic_1,NaN,NaN,0.0,4.0,30.0
1,0,2,4,1,1,0,0.10634921,0.10634921,358.73016,NaN,practic_1,NaN,NaN,0.0,4.0,30.0
1,0,2,3,1,1,0,0.1,0.1,13.756614,NaN,practic_1,NaN,NaN,0.0,4.0,30.0
1,0,2,2,1,1,0,0.1,0.1,13.756614,NaN,practic_1,NaN,NaN,0.0,4.0,30.0
1,0,2,1,1,1,0,0.1,0.1,13.756614,NaN,practic_1,NaN,NaN,0.0,4.0,30.0
1,0,1,4,1,1,0,0.10634921,0.10634921,358.73016,NaN,practic_1,NaN,NaN,0.0,4.0,30.0
1,0,1,3,1,1,0,0.1,0.1,13.756614,NaN,practic_1,NaN,NaN,0.0,4.0,30.0
1,0,1,2,1,1,0,0.1,0.1,13.756614,NaN,practic_1,NaN,NaN,0.0,4.0,30.0
1,0,1,1,1,1,0,0.1,0.1,13.756614,NaN,practic_1,NaN,NaN,0.0,4.0,30.0
1,0,1,4,1,1,0,0.10634921,0.10634921,358.73016,NaN,practic_1,NaN,NaN,0.0,4.0,30.0
1,0,1,3,1,1,0,0.1,0.1,13.756614,NaN,practic_1,NaN,NaN,0.0,4.0,30.0
1,0,1,2,1,1,0,0.1,0.1,13.756614,NaN,practic_1,NaN,NaN,0.0,4.0,30.0
1,0,1,1,1,1,0,0.1,0.1,13.756614,NaN,practic_1,NaN,NaN,0.0,4.0,30.0
1,0,1,4,1,1,0,0.10634921,0.10634921,358.73016,NaN,practic_1,NaN,NaN,0.0,4.0,30.0
1,0,1,3,1,1,0,0.1,0.1,13.756614,NaN,practic_1,NaN,NaN,0.0,4.0,30.0
1,0,1,2,1,1,0,0.1,0.1,13.756614,NaN,practic_1,NaN,NaN,0.0,4.0,30.0
1,0,1,1,1,1,0,0.1,0.1,13.756614,NaN,practic_1,NaN,NaN,0.0,4.0,30.0
1,0,1,4,1,1,0,0.104761906,0.104761906,359.04764,NaN,practic_1,NaN,NaN,0.0,4.0,30.0
1,0,1,3,1,1,0,0.1,0.1,13.650794,NaN,practic_1,NaN,NaN,0.0,4.0,30.0
1,0,1,2,1,1,0,0.1,0.1,13.650794,NaN,practic_1,NaN,NaN,0.0,4.0,30.0
1,0,1,1,1,1,0,0.1,0.1,13.650794,NaN,practic_1,NaN,NaN,0.0,4.0,30.0
1,0,1,4,1,1,0,0.104761906,0.104761906,359.04764,NaN,practic_1,NaN,NaN,0.0,4.0,30.0
1,0,1,3,1,1,0,0.1,0.1,13.650794,NaN,practic_1,NaN,NaN,0.0,4.0,30.0
1,0,1,2,1,1,0,0.1,0.1,13.650794,NaN,practic_1,NaN,NaN,0.0,4.0,30.0
1,0,1,1,1,1,0,0.1,0.1,13.650794,NaN,practic_1,NaN,NaN,0.0,4.0,30.0
1,0,1,4,1,1,0,0.104761906,0.104761906,359.04764,NaN,practic_1,NaN,NaN,0.0,4.0,30.0
1,0,1,3,1,1,0,0.1,0.1,13.650794,NaN,practic_1,NaN,NaN,0.0,4.0,30.0
1,0,1,2,1,1,0,0.1,0.1,13.650794,NaN,practic_1,NaN,NaN,0.0,4.0,30.0
1,0,1,1,1,1,0,0.1,0.1,13.650794,NaN,practic_1,NaN,NaN,0.0,4.0,30.0
1,0,1,4,1,1,0,0.104761906,0.104761906,359.04764,NaN,practic_1,NaN,NaN,0.0,4.0,30.0
1,0,1,3,1,1,0,0.1,0.1,13.650794,NaN,practic_1,NaN,NaN,0.0,4.0,30.0
1,0,1,2,1,1,0,0.1,0.1,13.650794,NaN,practic_1,NaN,NaN,0.0,4.0,30.0
1,0,1,1,1,1,0,0.1,0.1,13.650794,NaN,practic_1,NaN,NaN,0.0,4.0,30.0
1,0,1,4,1,1,0,0.104761906,0.104761906,359.04764,NaN,practic_1,NaN,NaN,0.0,4.0,30.0
1,0,1,3,1,1,0,0.1,0.1,13.650794,NaN,practic_1,NaN,NaN,0.0,4.0,30.0
1,0,1,2,1,1,0,0.1,0.1,13.650794,NaN,practic_1,NaN,NaN,0.0,4.0,30.0
1,0,1,1,1,1,0,0.1,0.1,13.650794,NaN,practic_1,NaN,NaN,0.0,4.0,30.0
1,0,1,4,1,1,0,0.103174604,0.103174604,359.36508,NaN,practic_1,NaN,NaN,0.0,4.0,30.0
1,0,1,3,1,1,0,0.1,0.1,13.544973,NaN,practic_1,NaN,NaN,0.0,4.0,30.0
1,0,1,2,1,1,0,0.1,0.1,13.544973,NaN,practic_1,NaN,NaN,0.0,4.0,30.0
1,0,1,1,1,1,0,0.1,0.1,13.544973,NaN,practic_1,NaN,NaN,0.0,4.0,30.0
1,0,1,1,1,1,0,0.1,0.1,13.544973,NaN,practic_1,NaN,NaN,0.0,4.0,30.0
1,0,1,4,1,1,0,0.103174604,0.103174604,359.36508,NaN,practic_1,NaN,NaN,0.0,4.0,30.0
1,0,1,3,1,1,0,0.1,0.1,13.544973,NaN,practic_1,NaN,NaN,0.0,4.0,30.0
1,0,1,2,1,1,0,0.1,0.1,13.544973,NaN,practic_1,NaN,NaN,0.0,4.0,30.0
1,0,0,4,1,1,0,0.103174604,0.103174604,359.36508,NaN,practic_1,NaN,NaN,0.0,4.0,30.0
1,0,0,3,1,1,0,0.1,0.1,13.544973,NaN,practic_1,NaN,NaN,0.0,4.0,30.0
1,0,0,2,1,1,0,0.1,0.1,13.544973,NaN,practic_1,NaN,NaN,0.0,4.0,30.0
1,0,0,1,1,1,0,0.1,0.1,13.544973,NaN,practic_1,NaN,NaN,0.0,4.0,30.0
1,0,0,1,1,1,0,0.1,0.1,13.544973,NaN,practic_1,NaN,NaN,0.0,4.0,30.0
1,0,0,4,1,1,0,0.103174604,0.103174604,359.36508,NaN,practic_1,NaN,NaN,0.0,4.0,30.0
1,0,0,3,1,1,0,0.1,0.1,13.544973,NaN,practic_1,NaN,NaN,0.0,4.0,30.0
1,0,0,2,1,1,0,0.1,0.1,13.544973,NaN,practic_1,NaN,NaN,0.0,4.0,30.0
1,0,0,1,1,1,0,0.1,0.1,13.544973,NaN,practic_1,NaN,NaN,0.0,4.0,30.0
1,0,0,4,1,1,0,0.103174604,0.103174604,359.36508,NaN,practic_1,NaN,NaN,0.0,4.0,30.0
1,0,0,3,1,1,0,0.1,0.1,13.544973,NaN,practic_1,NaN,NaN,0.0,4.0,30.0
1,0,0,2,1,1,0,0.1,0.1,13.544973,NaN,practic_1,NaN,NaN,0.0,4.0,30.0
1,0,0,1,1,1,0,0.1,0.1,13.544973,NaN,practic_1,NaN,NaN,0.0,4.0,30.0
1,0,0,4,1,1,0,0.103174604,0.103174604,359.36508,NaN,practic_1,NaN,NaN,0.0,4.0,30.0
1,0,0,3,1,1,0,0.1,0.1,13.544973,NaN,practic_1,NaN,NaN,0.0,4.0,30.0
1,0,0,2,1,1,0,0.1,0.1,13.544973,NaN,practic_1,NaN,NaN,0.0,4.0,30.0
1,0,0,1,1,1,0,0.1,0.1,13.544973,NaN,practic_1,NaN,NaN,0.0,4.0,30.0
1,0,0,4,1,1,0,0.103174604,0.103174604,359.36508,NaN,practic_1,NaN,NaN,0.0,4.0,30.0
1,0,0,3,1,1,0,0.1,0.1,13.544973,NaN,practic_1,NaN,NaN,0.0,4.0,30.0
1,0,0,2,1,1,0,0.1,0.1,13.544973,NaN,practic_1,NaN,NaN,0.0,4.0,30.0
1,0,0,1,1,1,0,0.1,0.1,13.544973,NaN,practic_1,NaN,NaN,0.0,4.0,30.0
1,0,0,4,1,1,0,0.103174604,0.103174604,359.36508,NaN,practic_1,NaN,NaN,0.0,4.0,30.0
1,0,0,3,1,1,0,0.1,0.1,13.544973,NaN,practic_1,NaN,NaN,0.0,4.0,30.0
1,0,0,2,1,1,0,0.1,0.1,13.544973,NaN,practic_1,NaN,NaN,0.0,4.0,30.0
1,0,0,1,1,1,0,0.1,0.1,13.544973,NaN,practic_1,NaN,NaN,0.0,4.0,30.0
1,0,0,4,1,1,0,0.103174604,0.103174604,359.36508,NaN,practic_1,NaN,NaN,0.0,4.0,30.0
1,0,0,3,1,1,0,0.1,0.1,13.544973,NaN,practic_1,NaN,NaN,0.0,4.0,30.0
1,0,0,2,1,1,0,0.1,0.1,13.544973,NaN,practic_1,NaN,NaN,0.0,4.0,30.0
1,0,0,4,1,1,0,0.103174604,0.103174604,359.36508,NaN,practic_1,NaN,NaN,0.0,4.0,30.0
1,0,0,3,1,1,0,0.1,0.1,13.544973,NaN,practic_1,NaN,NaN,0.0,4.0,30.0
1,0,0,2,1,1,0,0.1,0.1,13.544973,NaN,practic_1,NaN,NaN,0.0,4.0,30.0
1,0,0,1,1,1,0,0.1,0.1,13.544973,NaN,practic_1,NaN,NaN,0.0,4.0,30.0
1,0,0,4,1,1,0,0.14761905,0.14761905,350.4762,NaN,practic_1,NaN,NaN,0.0,4.0,30.0
1,0,0,3,1,1,0,0.1,0.1,16.507936,NaN,practic_1,NaN,NaN,0.0,4.0,30.0
1,0,0,2,1,1,0,0.1,0.1,16.507936,NaN,practic_1,NaN,NaN,0.0,4.0,30.0
1,0,0,1,1,1,0,0.1,0.1,16.507936,NaN,practic_1,NaN,NaN,0.0,4.0,30.0
1,0,0,4,1,1,0,0.1952381,0.1952381,340.95236,NaN,practic_1,NaN,NaN,0.0,4.0,30.0
1,0,0,3,1,1,0,0.1,0.1,19.68254,NaN,practic_1,NaN,NaN,0.0,4.0,30.0
1,0,0,2,1,1,0,0.1,0.1,19.68254,NaN,practic_1,NaN,NaN,0.0,4.0,30.0
1,0,0,1,1,1,0,0.1,0.1,19.68254,NaN,practic_1,NaN,NaN,0.0,4.0,30.0
2,0,29,1,1,1,0,0.023937523,0.023937523,86.575676,NaN,practic_1,NaN,NaN,0.0,4.0,30.0
2,0,29,2,1,1,0,0.5716775,0.5716775,201.60985,NaN,practic_1,NaN,NaN,0.0,4.0,30.0
2,0,29,3,1,1,0,0.40894085,0.40894085,79.26714,NaN,practic_1,NaN,NaN,0.0,4.0,30.0
2,0,29,4,1,1,0,0.42027324,0.42027324,32.547333,NaN,practic_1,NaN,NaN,0.0,4.0,30.0
2,0,29,1,1,1,0,0.023937523,0.023937523,24.787504,NaN,practic_1,NaN,NaN,0.0,4.0,30.0
2,0,29,4,1,1,0,0.42027324,0.42027324,295.94537,NaN,practic_1,NaN,NaN,0.0,4.0,30.0
2,0,29,3,1,1,0,0.1,0.1,39.63357,NaN,practic_1,NaN,NaN,0.0,4.0,30.0
2,0,29,2,1,1,0,0.1,0.1,39.63357,NaN,practic_1,NaN,NaN,0.0,4.0,30.0
2,0,29,1,1,1,0,0.1,0.1,34.684883,NaN,practic_1,NaN,NaN,0.0,4.0,30.0
2,0,29,4,1,1,0,0.42027324,0.42027324,295.94537,NaN,practic_1,NaN,NaN,0.0,4.0,30.0
2,0,29,3,1,1,0,0.1,0.1,34.684883,NaN,practic_1,NaN,NaN,0.0,4.0,30.0
2,0,29,2,1,1,0,0.1,0.1,34.684883,NaN,practic_1,NaN,NaN,0.0,4.0,30.0
2,0,29,4,1,1,0,0.42027324,0.42027324,295.94537,NaN,practic_1,NaN,NaN,0.0,4.0,30.0
2,0,29,3,1,1,0,0.1,0.1,34.684883,NaN,practic_1,NaN,NaN,0.0,4.0,30.0
2,0,29,2,1,1,0,0.1,0.1,34.684883,NaN,practic_1,NaN,NaN,0.0,4.0,30.0
2,0,29,1,1,1,0,0.1,0.1,34.684883,NaN,practic_1,NaN,NaN,0.0,4.0,30.0
2,0,29,4,1,1,0,0.42027324,0.42027324,295.94537,NaN,practic_1,NaN,NaN,0.0,4.0,30.0
2,0,29,3,1,1,0,0.1,0.1,34.684883,NaN,practic_1,NaN,NaN,0.0,4.0,30.0
2,0,29,2,1,1,0,0.1,0.1,34.684883,NaN,practic_1,NaN,NaN,0.0,4.0,30.0
2,0,29,1,1,1,0,0.1,0.1,34.684883,NaN,practic_1,NaN,NaN,0.0,4.0,30.0
2,0,29,4,1,1,0,0.42027324,0.42027324,295.94537,NaN,practic_1,NaN,NaN,0.0,4.0,30.0
2,0,29,3,1,1,0,0.1,0.1,34.684883,NaN,practic_1,NaN,NaN,0.0,4.0,30.0
2,0,29,2,1,1,0,0.1,0.1,34.684883,NaN,practic_1,NaN,NaN,0.0,4.0,30.0
2,0,29,1,1,1,0,0.1,0.1,34.684883,NaN,practic_1,NaN,NaN,0.0,4.0,30.0
2,0,29,4,1,1,0,0.42027324,0.42027324,295.94537,NaN,practic_1,NaN,NaN,0.0,4.0,30.0
2,0,29,3,1,1,0,0.1,0.1,34.684883,NaN,practic_1,NaN,NaN,0.0,4.0,30.0
2,0,29,2,1,1,0,0.1,0.1,34.684883,NaN,practic_1,NaN,NaN,0.0,4.0,30.0
2,0,29,1,1,1,0,0.1,0.1,34.684883,NaN,practic_1,NaN,NaN,0.0,4.0,30.0
2,0,29,4,1,1,0,0.42027324,0.42027324,295.94537,NaN,practic_1,NaN,NaN,0.0,4.0,30.0
2,0,29,3,1,1,0,0.1,0.1,34.684883,NaN,practic_1,NaN,NaN,0.0,4.0,30.0
2,0,29,2,1,1,0,0.1,0.1,34.684883,NaN,practic_1,NaN,NaN,0.0,4.0,30.0
2,0,29,1,1,1,0,0.1,0.1,34.684883,NaN,practic_1,NaN,NaN,0.0,4.0,30.0
2,0,29,4,1,1,0,0.42027324,0.42027324,295.94537,NaN,practic_1,NaN,NaN,0.0,4.0,30.0
2,0,29,3,1,1,0,0.1,0.1,34.684883,NaN,practic_1,NaN,NaN,0.0,4.0,30.0
2,0,29,2,1,1,0,0.1,0.1,34.684883,NaN,practic_1,NaN,NaN,0.0,4.0,30.0
2,0,29,1,1,1,0,0.1,0.1,34.684883,NaN,practic_1,NaN,NaN,0.0,4.0,30.0
2,0,29,4,1,1,0,0.42027324,0.42027324,295.94537,NaN,practic_1,NaN,NaN,0.0,4.0,30.0
2,0,29,3,1,1,0,0.1,0.1,34.684883,NaN,practic_1,NaN,NaN,0.0,4.0,30.0
2,0,29,2,1,1,0,0.1,0.1,34.684883,NaN,practic_1,NaN,NaN,0.0,4.0,30.0
2,0,29,1,1,1,0,0.1,0.1,34.684883,NaN,practic_1,NaN,NaN,0.0,4.0,30.0
2,0,28,4,1,1,0,0.42027324,0.42027324,295.94537,NaN,practic_1,NaN,NaN,0.0,4.0,30.0
2,0,28,3,1,1,0,0.1,0.1,34.684883,NaN,practic_1,NaN,NaN,0.0,4.0,30.0
2,0,28,2,1,1,0,0.1,0.1,34.684883,NaN,practic_1,NaN,NaN,0.0,4.0,30.0
2,0,28,1,1,1,0,0.1,0.1,34.684883,NaN,practic_1,NaN,NaN,0.0,4.0,30.0
2,0,28,4,1,1,0,0.42027324,0.42027324,295.94537,NaN,practic_1,NaN,NaN,0.0,4.0,30.0
2,0,28,3,1,1,0,0.1,0.1,34.684883,NaN,practic_1,NaN,NaN,0.0,4.0,30.0
2,0,28,2,1,1,0,0.1,0.1,34.684883,NaN,practic_1,NaN,NaN,0.0,4.0,30.0
2,0,28,1,1,1,0,0.1,0.1,34.684883,NaN,practic_1,NaN,NaN,0.0,4.0,30.0
2,0,28,4,1,1,0,0.42027324,0.42027324,295.94537,NaN,practic_1,NaN,NaN,0.0,4.0,30.0
2,0,28,3,1,1,0,0.1,0.1,34.684883,NaN,practic_1,NaN,NaN,0.0,4.0,30.0
2,0,28,2,1,1,0,0.1,0.1,34.684883,NaN,practic_1,NaN,NaN,0.0,4.0,30.0
2,0,28,1,1,1,0,0.1,0.1,34.684883,NaN,practic_1,NaN,NaN,0.0,4.0,30.0
2,0,28,4,1,1,0,0.42027324,0.42027324,295.94537,NaN,practic_1,NaN,NaN,0.0,4.0,30.0
2,0,28,3,1,1,0,0.1,0.1,34.684883,NaN,practic_1,NaN,NaN,0.0,4.0,30.0
2,0,28,2,1,1,0,0.1,0.1,34.684883,NaN,practic_1,NaN,NaN,0.0,4.0,30.0
2,0,28,1,1,1,0,0.1,0.1,34.684883,NaN,practic_1,NaN,NaN,0.0,4.0,30.0
2,0,28,4,1,1,0,0.42027324,0.42027324,295.94537,NaN,practic_1,NaN,NaN,0.0,4.0,30.0
2,0,28,3,1,1,0,0.1,0.1,34.684883,NaN,practic_1,NaN,NaN,0.0,4.0,30.0
2,0,28,2,1,1,0,0.1,0.1,34.684883,NaN,practic_1,NaN,NaN,0.0,4.0,30.0
2,0,28,1,1,1,0,0.1,0.1,34.684883,NaN,practic_1,NaN,NaN,0.0,4.0,30.0
2,0,28,3,1,1,0,0.1,0.1,34.684883,NaN,practic_1,NaN,NaN,0.0,4.0,30.0
2,0,28,2,1,1,0,0.1,0.1,34.684883,NaN,practic_1,NaN,NaN,0.0,4.0,30.0
2,0,28,1,1,1,0,0.1,0.1,34.684883,NaN,practic_1,NaN,NaN,0.0,4.0,30.0
2,0,28,4,1,1,0,0.42027324,0.42027324,295.94537,NaN,practic_1,NaN,NaN,0.0,4.0,30.0
2,0,28,4,1,1,0,0.42027324,0.42027324,295.94537,NaN,practic_1,NaN,NaN,0.0,4.0,30.0
2,0,28,3,1,1,0,0.1,0.1,34.684883,NaN,practic_1,NaN,NaN,0.0,4.0,30.0
2,0,28,2,1,1,0,0.1,0.1,34.684883,NaN,practic_1,NaN,NaN,0.0,4.0,30.0
2,0,28,1,1,1,0,0.1,0.1,34.684883,NaN,practic_1,NaN,NaN,0.0,4.0,30.0
2,0,28,4,1,1,0,0.42027324,0.42027324,295.94537,NaN,practic_1,NaN,NaN,0.0,4.0,30.0
2,0,28,3,1,1,0,0.1,0.1,34.684883,NaN,practic_1,NaN,NaN,0.0,4.0,30.0
2,0,28,2,1,1,0,0.1,0.1,34.684883,NaN,practic_1,NaN,NaN,0.0,4.0,30.0
2,0,28,1,1,1,0,0.1,0.1,34.684883,NaN,practic_1,NaN,NaN,0.0,4.0,30.0
2,0,28,4,1,1,0,0.42027324,0.42027324,295.94537,NaN,practic_1,NaN,NaN,0.0,4.0,30.0
2,0,28,3,1,1,0,0.1,0.1,34.684883,NaN,practic_1,NaN,NaN,0.0,4.0,30.0
2,0,28,2,1,1,0,0.1,0.1,34.684883,NaN,practic_1,NaN,NaN,0.0,4.0,30.0
2,0,28,1,1,1,0,0.1,0.1,34.684883,NaN,practic_1,NaN,NaN,0.0,4.0,30.0
2,0,28,4,1,1,0,0.42027324,0.42027324,295.94537,NaN,practic_1,NaN,NaN,0.0,4.0,30.0
2,0,28,3,1,1,0,0.1,0.1,34.684883,NaN,practic_1,NaN,NaN,0.0,4.0,30.0
2,0,28,2,1,1,0,0.1,0.1,34.684883,NaN,practic_1,NaN,NaN,0.0,4.0,30.0
2,0,28,1,1,1,0,0.1,0.1,34.684883,NaN,practic_1,NaN,NaN,0.0,4.0,30.0
2,0,27,4,1,1,0,0.42027324,0.42027324,295.94537,NaN,practic_1,NaN,NaN,0.0,4.0,30.0
2,0,27,3,1,1,0,0.1,0.1,34.684883,NaN,practic_1,NaN,NaN,0.0,4.0,30.0
2,0,27,2,1,1,0,0.1,0.1,34.684883,NaN,practic_1,NaN,NaN,0.0,4.0,30.0
2,0,27,1,1,1,0,0.1,0.1,34.684883,NaN,practic_1,NaN,NaN,0.0,4.0,30.0
2,0,27,4,1,1,0,0.42027324,0.42027324,295.94537,NaN,practic_1,NaN,NaN,0.0,4.0,30.0
2,0,27,3,1,1,0,0.1,0.1,34.684883,NaN,practic_1,NaN,NaN,0.0,4.0,30.0
2,0,27,2,1,1,0,0.1,0.1,34.684883,NaN,practic_1,NaN,NaN,0.0,4.0,30.0
2,0,27,1,1,1,0,0.1,0.1,34.684883,NaN,practic_1,NaN,NaN,0.0,4.0,30.0
2,0,27,4,1,1,0,0.42027324,0.42027324,295.94537,NaN,practic_1,NaN,NaN,0.0,4.0,30.0
2,0,27,3,1,1,0,0.1,0.1,34.684883,NaN,practic_1,NaN,NaN,0.0,4.0,30.0
2,0,27,2,1,1,0,0.1,0.1,34.684883,NaN,practic_1,NaN,NaN,0.0,4.0,30.0
2,0,27,1,1,1,0,0.1,0.1,34.684883,NaN,practic_1,NaN,NaN,0.0,4.0,30.0
2,0,27,4,1,1,0,0.42027324,0.42027324,295.94537,NaN,practic_1,NaN,NaN,0.0,4.0,30.0
2,0,27,3,1,1,0,0.1,0.1,34.684883,NaN,practic_1,NaN,NaN,0.0,4.0,30.0
2,0,27,2,1,1,0,0.1,0.1,34.684883,NaN,practic_1,NaN,NaN,0.0,4.0,30.0
2,0,27,1,1,1,0,0.1,0.1,34.684883,NaN,practic_1,NaN,NaN,0.0,4.0,30.0
2,0,27,4,1,1,0,0.42027324,0.42027324,295.94537,NaN,practic_1,NaN,NaN,0.0,4.0,30.0
2,0,27,3,1,1,0,0.1,0.1,34.684883,NaN,practic_1,NaN,NaN,0.0,4.0,30.0
2,0,27,2,1,1,0,0.1,0.1,34.684883,NaN,practic_1,NaN,NaN,0.0,4.0,30.0
2,0,27,1,1,1,0,0.1,0.1,34.684883,NaN,practic_1,NaN,NaN,0.0,4.0,30.0
2,0,27,4,1,1,0,0.42027324,0.42027324,295.94537,NaN,practic_1,NaN,NaN,0.0,4.0,30.0
2,0,27,3,1,1,0,0.1,0.1,34.684883,NaN,practic_1,NaN,NaN,0.0,4.0,30.0
2,0,27,2,1,1,0,0.1,0.1,34.684883,NaN,practic_1,NaN,NaN,0.0,4.0,30.0
2,0,27,1,1,1,0,0.1,0.1,34.684883,NaN,practic_1,NaN,NaN,0.0,4.0,30.0
2,0,27,4,1,1,0,0.42027324,0.42027324,295.94537,NaN,practic_1,NaN,NaN,0.0,4.0,30.0
2,0,27,3,1,1,0,0.1,0.1,34.684883,NaN,practic_1,NaN,NaN,0.0,4.0,30.0
2,0,27,2,1,1,0,0.1,0.1,34.684883,NaN,practic_1,NaN,NaN,0.0,4.0,30.0
2,0,27,1,1,1,0,0.1,0.1,34.684883,NaN,practic_1,NaN,NaN,0.0,4.0,30.0
2,0,27,4,1,1,0,0.42027324,0.42027324,295.94537,NaN,practic_1,NaN,NaN,0.0,4.0,30.0
2,0,27,3,1,1,0,0.1,0.1,34.684883,NaN,practic_1,NaN,NaN,0.0,4.0,30.0
2,0,27,2,1,1,0,0.1,0.1,34.684883,NaN,practic_1,NaN,NaN,0.0,4.0,30.0
2,0,27,1,1,1,0,0.1,0.1,34.684883,NaN,practic_1,NaN,NaN,0.0,4.0,30.0
2,0,27,4,1,1,0,0.42027324,0.42027324,295.94537,NaN,practic_1,NaN,NaN,0.0,4.0,30.0
2,0,27,3,1,1,0,0.1,0.1,34.684883,NaN,practic_1,NaN,NaN,0.0,4.0,30.0
2,0,27,2,1,1,0,0.1,0.1,34.684883,NaN,practic_1,NaN,NaN,0.0,4.0,30.0
2,0,27,1,1,1,0,0.1,0.1,34.684883,NaN,practic_1,NaN,NaN,0.0,4.0,30.0
2,0,27,4,1,1,0,0.42027324,0.42027324,295.94537,NaN,practic_1,NaN,NaN,0.0,4.0,30.0
2,0,27,3,1,1,0,0.1,0.1,34.684883,NaN,practic_1,NaN,NaN,0.0,4.0,30.0
2,0,27,2,1,1,0,0.1,0.1,34.684883,NaN,practic_1,NaN,NaN,0.0,4.0,30.0
2,0,27,1,1,1,0,0.1,0.1,34.684883,NaN,practic_1,NaN,NaN,0.0,4.0,30.0
2,0,26,4,1,1,0,0.42027324,0.42027324,295.94537,NaN,practic_1,NaN,NaN,0.0,4.0,30.0
2,0,26,3,1,1,0,0.1,0.1,34.684883,NaN,practic_1,NaN,NaN,0.0,4.0,30.0
2,0,26,2,1,1,0,0.1,0.1,34.684883,NaN,practic_1,NaN,NaN,0.0,4.0,30.0
2,0,26,1,1,1,0,0.1,0.1,34.684883,NaN,practic_1,NaN,NaN,0.0,4.0,30.0
2,0,26,4,1,1,0,0.42027324,0.42027324,295.94537,NaN,practic_1,NaN,NaN,0.0,4.0,30.0
2,0,26,3,1,1,0,0.1,0.1,34.684883,NaN,practic_1,NaN,NaN,0.0,4.0,30.0
2,0,26,2,1,1,0,0.1,0.1,34.684883,NaN,practic_1,NaN,NaN,0.0,4.0,30.0
2,0,26,1,1,1,0,0.1,0.1,34.684883,NaN,practic_1,NaN,NaN,0.0,4.0,30.0
2,0,26,4,1,1,0,0.42027324,0.42027324,295.94537,NaN,practic_1,NaN,NaN,0.0,4.0,30.0
2,0,26,3,1,1,0,0.1,0.1,34.684883,NaN,practic_1,NaN,NaN,0.0,4.0,30.0
2,0,26,2,1,1,0,0.1,0.1,34.684883,NaN,practic_1,NaN,NaN,0.0,4.0,30.0
2,0,26,1,1,1,0,0.1,0.1,34.684883,NaN,practic_1,NaN,NaN,0.0,4.0,30.0
2,0,26,4,1,1,0,0.9222222,0.9222222,195.55556,NaN,practic_1,NaN,NaN,0.0,4.0,30.0
2,0,26,3,1,1,0,0.1,0.1,68.14814,NaN,practic_1,NaN,NaN,0.0,4.0,30.0
2,0,26,2,1,1,0,0.1,0.1,68.14814,NaN,practic_1,NaN,NaN,0.0,4.0,30.0
2,0,26,1,1,1,0,0.1,0.1,68.14814,NaN,practic_1,NaN,NaN,0.0,4.0,30.0
2,0,26,1,1,1,0,0.1,0.1,68.35979,NaN,practic_1,NaN,NaN,0.0,4.0,30.0
2,0,26,4,1,1,0,0.9253968,0.9253968,194.92064,NaN,practic_1,NaN,NaN,0.0,4.0,30.0
2,0,26,3,1,1,0,0.1,0.1,68.35979,NaN,practic_1,NaN,NaN,0.0,4.0,30.0
2,0,26,2,1,1,0,0.1,0.1,68.35979,NaN,practic_1,NaN,NaN,0.0,4.0,30.0
2,0,26,1,1,1,0,0.1,0.1,58.518517,NaN,practic_1,NaN,NaN,0.0,4.0,30.0
2,0,26,4,1,1,0,0.7777778,0.7777778,224.44444,NaN,practic_1,NaN,NaN,0.0,4.0,30.0
2,0,26,3,1,1,0,0.1,0.1,58.518517,NaN,practic_1,NaN,NaN,0.0,4.0,30.0
2,0,26,2,1,1,0,0.1,0.1,58.518517,NaN,practic_1,NaN,NaN,0.0,4.0,30.0
2,0,26,1,1,1,0,0.1,0.1,42.222225,NaN,practic_1,NaN,NaN,0.0,4.0,30.0
2,0,26,4,1,1,0,0.53333336,0.53333336,273.33334,NaN,practic_1,NaN,NaN,0.0,4.0,30.0
2,0,26,3,1,1,0,0.1,0.1,42.222225,NaN,practic_1,NaN,NaN,0.0,4.0,30.0
2,0,26,2,1,1,0,0.1,0.1,42.222225,NaN,practic_1,NaN,NaN,0.0,4.0,30.0
2,0,26,4,1,1,0,0.4984127,0.4984127,280.31744,NaN,practic_1,NaN,NaN,0.0,4.0,30.0
2,0,26,3,1,1,0,0.1,0.1,39.89418,NaN,practic_1,NaN,NaN,0.0,4.0,30.0
2,0,26,2,1,1,0,0.1,0.1,39.89418,NaN,practic_1,NaN,NaN,0.0,4.0,30.0
2,0,26,1,1,1,0,0.1,0.1,39.89418,NaN,practic_1,NaN,NaN,0.0,4.0,30.0
2,0,26,1,1,1,0,0.1,0.1,32.169315,NaN,practic_1,NaN,NaN,0.0,4.0,30.0
2,0,26,4,1,1,0,0.3825397,0.3825397,303.49207,NaN,practic_1,NaN,NaN,0.0,4.0,30.0
2,0,26,3,1,1,0,0.1,0.1,32.169315,NaN,practic_1,NaN,NaN,0.0,4.0,30.0
2,0,26,2,1,1,0,0.1,0.1,32.169315,NaN,practic_1,NaN,NaN,0.0,4.0,30.0
2,0,26,1,1,1,0,0.1,0.1,28.67725,NaN,practic_1,NaN,NaN,0.0,4.0,30.0
2,0,26,4,1,1,0,0.33015874,0.33015874,313.96826,NaN,practic_1,NaN,NaN,0.0,4.0,30.0
2,0,26,3,1,1,0,0.1,0.1,28.67725,NaN,practic_1,NaN,NaN,0.0,4.0,30.0
2,0,26,2,1,1,0,0.1,0.1,28.67725,NaN,practic_1,NaN,NaN,0.0,4.0,30.0
2,0,25,4,1,1,0,0.26507938,0.26507938,326.98413,NaN,practic_1,NaN,NaN,0.0,4.0,30.0
2,0,25,3,1,1,0,0.1,0.1,24.338627,NaN,practic_1,NaN,NaN,0.0,4.0,30.0
2,0,25,2,1,1,0,0.1,0.1,24.338627,NaN,practic_1,NaN,NaN,0.0,4.0,30.0
2,0,25,1,1,1,0,0.1,0.1,24.338627,NaN,practic_1,NaN,NaN,0.0,4.0,30.0
2,0,25,1,1,1,0,0.1,0.1,20.846561,NaN,practic_1,NaN,NaN,0.0,4.0,30.0
2,0,25,4,1,1,0,0.21269841,0.21269841,337.46033,NaN,practic_1,NaN,NaN,0.0,4.0,30.0
2,0,25,3,1,1,0,0.1,0.1,20.846561,NaN,practic_1,NaN,NaN,0.0,4.0,30.0
2,0,25,2,1,1,0,0.1,0.1,20.846561,NaN,practic_1,NaN,NaN,0.0,4.0,30.0
2,0,25,4,1,1,0,0.21111111,0.21111111,337.77777,NaN,practic_1,NaN,NaN,0.0,4.0,30.0
2,0,25,3,1,1,0,0.1,0.1,20.740742,NaN,practic_1,NaN,NaN,0.0,4.0,30.0
2,0,25,2,1,1,0,0.1,0.1,20.740742,NaN,practic_1,NaN,NaN,0.0,4.0,30.0
2,0,25,1,1,1,0,0.1,0.1,20.740742,NaN,practic_1,NaN,NaN,0.0,4.0,30.0
2,0,25,1,1,1,0,0.1,0.1,31.746033,NaN,practic_1,NaN,NaN,0.0,4.0,30.0
2,0,25,4,1,1,0,0.37619048,0.37619048,304.7619,NaN,practic_1,NaN,NaN,0.0,4.0,30.0
2,0,25,3,1,1,0,0.1,0.1,31.746033,NaN,practic_1,NaN,NaN,0.0,4.0,30.0
2,0,25,2,1,1,0,0.1,0.1,31.746033,NaN,practic_1,NaN,NaN,0.0,4.0,30.0
2,0,25,1,1,1,0,0.1,0.1,46.13757,NaN,practic_1,NaN,NaN,0.0,4.0,30.0
2,0,25,4,1,1,0,0.5920635,0.5920635,261.5873,NaN,practic_1,NaN,NaN,0.0,4.0,30.0
2,0,25,3,1,1,0,0.1,0.1,46.13757,NaN,practic_1,NaN,NaN,0.0,4.0,30.0
2,0,25,2,1,1,0,0.1,0.1,46.13757,NaN,practic_1,NaN,NaN,0.0,4.0,30.0
2,0,25,1,1,1,0,0.1,0.1,57.777775,NaN,practic_1,NaN,NaN,0.0,4.0,30.0
2,0,25,4,1,1,0,0.76666665,0.76666665,226.66667,NaN,practic_1,NaN,NaN,0.0,4.0,30.0
2,0,25,3,1,1,0,0.1,0.1,57.777775,NaN,practic_1,NaN,NaN,0.0,4.0,30.0
2,0,25,2,1,1,0,0.1,0.1,57.777775,NaN,practic_1,NaN,NaN,0.0,4.0,30.0
2,0,25,1,1,1,0,0.1,0.1,63.91534,NaN,practic_1,NaN,NaN,0.0,4.0,30.0
2,0,25,4,1,1,0,0.85873014,0.85873014,208.25395,NaN,practic_1,NaN,NaN,0.0,4.0,30.0
2,0,25,3,1,1,0,0.1,0.1,63.91534,NaN,practic_1,NaN,NaN,0.0,4.0,30.0
2,0,25,2,1,1,0,0.1,0.1,63.91534,NaN,practic_1,NaN,NaN,0.0,4.0,30.0
2,0,25,1,1,1,0,0.1,0.1,49.947086,NaN,practic_1,NaN,NaN,0.0,4.0,30.0
2,0,25,4,1,1,0,0.64920634,0.64920634,250.15874,NaN,practic_1,NaN,NaN,0.0,4.0,30.0
2,0,25,3,1,1,0,0.1,0.1,49.947086,NaN,practic_1,NaN,NaN,0.0,4.0,30.0
2,0,25,2,1,1,0,0.1,0.1,49.947086,NaN,practic_1,NaN,NaN,0.0,4.0,30.0
2,0,25,4,1,1,0,0.35714287,0.35714287,308.57144,NaN,practic_1,NaN,NaN,0.0,4.0,30.0
2,0,25,3,1,1,0,0.1,0.1,30.476192,NaN,practic_1,NaN,NaN,0.0,4.0,30.0
2,0,25,2,1,1,0,0.1,0.1,30.476192,NaN,practic_1,NaN,NaN,0.0,4.0,30.0
2,0,25,1,1,1,0,0.1,0.1,30.476192,NaN,practic_1,NaN,NaN,0.0,4.0,30.0
2,0,25,4,1,1,0,0.26666668,0.26666668,326.6667,NaN,practic_1,NaN,NaN,0.0,4.0,30.0
2,0,25,3,1,1,0,0.1,0.1,24.444445,NaN,practic_1,NaN,NaN,0.0,4.0,30.0
2,0,25,2,1,1,0,0.1,0.1,24.444445,NaN,practic_1,NaN,NaN,0.0,4.0,30.0
2,0,25,1,1,1,0,0.1,0.1,24.444445,NaN,practic_1,NaN,NaN,0.0,4.0,30.0
2,0,24,4,1,1,0,0.4,0.4,300.0,NaN,practic_1,NaN,NaN,0.0,4.0,30.0
2,0,24,3,1,1,0,0.1,0.1,33.333336,NaN,practic_1,NaN,NaN,0.0,4.0,30.0
2,0,24,2,1,1,0,0.1,0.1,33.333336,NaN,practic_1,NaN,NaN,0.0,4.0,30.0
2,0,24,1,1,1,0,0.1,0.1,33.333336,NaN,practic_1,NaN,NaN,0.0,4.0,30.0
2,0,24,4,1,1,0,0.74444443,0.74444443,231.1111,NaN,practic_1,NaN,NaN,0.0,4.0,30.0
2,0,24,3,1,1,0,0.1,0.1,56.296295,NaN,practic_1,NaN,NaN,0.0,4.0,30.0
2,0,24,2,1,1,0,0.1,0.1,56.296295,NaN,practic_1,NaN,NaN,0.0,4.0,30.0
2,0,24,1,1,1,0,0.1,0.1,56.296295,NaN,practic_1,NaN,NaN,0.0,4.0,30.0
2,0,24,4,1,1,0,0.7746032,0.7746032,225.07935,NaN,practic_1,NaN,NaN,0.0,4.0,30.0
