period,subperiod,secondsLeft,subject,population,match,matchID,strategy0,target0,payoff,percentChangePerSecond,name,min,max,subperiods,playersInGroup,length
1,0,29,1,1,1,0,0.76362604,0.76362604,61.194576,NaN,practic_1,NaN,NaN,0.0,4.0,30.0
1,0,29,4,1,1,0,0.5247045,0.5247045,226.43137,NaN,practic_1,NaN,NaN,0.0,4.0,30.0
1,0,29,3,1,1,0,0.60745233,0.60745233,47.784306,NaN,practic_1,NaN,NaN,0.0,4.0,30.0
1,0,29,2,1,1,0,0.9134252,0.9134252,64.58975,NaN,practic_1,NaN,NaN,0.0,4.0,30.0
1,0,29,4,1,1,0,0.5247045,0.5247045,226.43137,NaN,practic_1,NaN,NaN,0.0,4.0,30.0
1,0,29,3,1,1,0,0.60745233,0.60745233,47.784306,NaN,practic_1,NaN,NaN,0.0,4.0,30.0
1,0,29,2,1,1,0,0.9134252,0.9134252,64.58975,NaN,practic_1,NaN,NaN,0.0,4.0,30.0
1,0,29,1,1,1,0,0.76362604,0.76362604,61.194576,NaN,practic_1,NaN,NaN,0.0,4.0,30.0
1,0,29,4,1,1,0,0.5247045,0.5247045,226.43137,NaN,practic_1,NaN,NaN,0.0,4.0,30.0
1,0,29,3,1,1,0,0.60745233,0.60745233,47.784306,NaN,practic_1,NaN,NaN,0.0,4.0,30.0
1,0,29,2,1,1,0,0.9134252,0.9134252,64.58975,NaN,practic_1,NaN,NaN,0.0,4.0,30.0
1,0,29,1,1,1,0,0.76362604,0.76362604,61.194576,NaN,practic_1,NaN,NaN,0.0,4.0,30.0
1,0,29,4,1,1,0,0.5247045,0.5247045,226.43137,NaN,practic_1,NaN,NaN,0.0,4.0,30.0
1,0,29,3,1,1,0,0.60745233,0.60745233,47.784306,NaN,practic_1,NaN,NaN,0.0,4.0,30.0
1,0,29,2,1,1,0,0.9134252,0.9134252,64.58975,NaN,practic_1,NaN,NaN,0.0,4.0,30.0
1,0,29,1,1,1,0,0.76362604,0.76362604,61.194576,NaN,practic_1,NaN,NaN,0.0,4.0,30.0
1,0,29,4,1,1,0,0.5247045,0.5247045,226.43137,NaN,practic_1,NaN,NaN,0.0,4.0,30.0
1,0,29,3,1,1,0,0.60745233,0.60745233,47.784306,NaN,practic_1,NaN,NaN,0.0,4.0,30.0
1,0,29,2,1,1,0,0.9134252,0.9134252,64.58975,NaN,practic_1,NaN,NaN,0.0,4.0,30.0
1,0,29,1,1,1,0,0.76362604,0.76362604,61.194576,NaN,practic_1,NaN,NaN,0.0,4.0,30.0
1,0,29,4,1,1,0,0.5247045,0.5247045,226.43137,NaN,practic_1,NaN,NaN,0.0,4.0,30.0
1,0,29,3,1,1,0,0.60745233,0.60745233,47.784306,NaN,practic_1,NaN,NaN,0.0,4.0,30.0
1,0,29,2,1,1,0,0.9134252,0.9134252,64.58975,NaN,practic_1,NaN,NaN,0.0,4.0,30.0
1,0,29,1,1,1,0,0.76362604,0.76362604,61.194576,NaN,practic_1,NaN,NaN,0.0,4.0,30.0
1,0,29,4,1,1,0,0.5247045,0.5247045,226.43137,NaN,practic_1,NaN,NaN,0.0,4.0,30.0
1,0,29,3,1,1,0,0.60745233,0.60745233,47.784306,NaN,practic_1,NaN,NaN,0.0,4.0,30.0
1,0,29,2,1,1,0,0.9134252,0.9134252,64.58975,NaN,practic_1,NaN,NaN,0.0,4.0,30.0
1,0,29,1,1,1,0,0.76362604,0.76362604,61.194576,NaN,practic_1,NaN,NaN,0.0,4.0,30.0
1,0,29,4,1,1,0,0.5247045,0.5247045,226.43137,NaN,practic_1,NaN,NaN,0.0,4.0,30.0
1,0,29,3,1,1,0,0.60745233,0.60745233,47.784306,NaN,practic_1,NaN,NaN,0.0,4.0,30.0
1,0,29,2,1,1,0,0.9134252,0.9134252,64.58975,NaN,practic_1,NaN,NaN,0.0,4.0,30.0
1,0,29,1,1,1,0,0.76362604,0.76362604,61.194576,NaN,practic_1,NaN,NaN,0.0,4.0,30.0
1,0,29,4,1,1,0,0.5247045,0.5247045,226.43137,NaN,practic_1,NaN,NaN,0.0,4.0,30.0
1,0,29,3,1,1,0,0.60745233,0.60745233,47.784306,NaN,practic_1,NaN,NaN,0.0,4.0,30.0
1,0,29,2,1,1,0,0.9134252,0.9134252,64.58975,NaN,practic_1,NaN,NaN,0.0,4.0,30.0
1,0,29,1,1,1,0,0.76362604,0.76362604,61.194576,NaN,practic_1,NaN,NaN,0.0,4.0,30.0
1,0,29,4,1,1,0,0.5247045,0.5247045,226.43137,NaN,practic_1,NaN,NaN,0.0,4.0,30.0
1,0,29,3,1,1,0,0.60745233,0.60745233,47.784306,NaN,practic_1,NaN,NaN,0.0,4.0,30.0
1,0,29,2,1,1,0,0.9134252,0.9134252,64.58975,NaN,practic_1,NaN,NaN,0.0,4.0,30.0
1,0,29,1,1,1,0,0.76362604,0.76362604,61.194576,NaN,practic_1,NaN,NaN,0.0,4.0,30.0
1,0,28,4,1,1,0,0.5247045,0.5247045,226.43137,NaN,practic_1,NaN,NaN,0.0,4.0,30.0
1,0,28,3,1,1,0,0.60745233,0.60745233,47.784306,NaN,practic_1,NaN,NaN,0.0,4.0,30.0
1,0,28,2,1,1,0,0.9134252,0.9134252,64.58975,NaN,practic_1,NaN,NaN,0.0,4.0,30.0
1,0,28,1,1,1,0,0.76362604,0.76362604,61.194576,NaN,practic_1,NaN,NaN,0.0,4.0,30.0
1,0,28,4,1,1,0,0.5247045,0.5247045,226.43137,NaN,practic_1,NaN,NaN,0.0,4.0,30.0
1,0,28,3,1,1,0,0.60745233,0.60745233,47.784306,NaN,practic_1,NaN,NaN,0.0,4.0,30.0
1,0,28,2,1,1,0,0.9134252,0.9134252,64.58975,NaN,practic_1,NaN,NaN,0.0,4.0,30.0
1,0,28,1,1,1,0,0.76362604,0.76362604,61.194576,NaN,practic_1,NaN,NaN,0.0,4.0,30.0
1,0,28,4,1,1,0,0.5247045,0.5247045,226.43137,NaN,practic_1,NaN,NaN,0.0,4.0,30.0
1,0,28,3,1,1,0,0.60745233,0.60745233,47.784306,NaN,practic_1,NaN,NaN,0.0,4.0,30.0
1,0,28,2,1,1,0,0.9134252,0.9134252,64.58975,NaN,practic_1,NaN,NaN,0.0,4.0,30.0
1,0,28,1,1,1,0,0.76362604,0.76362604,61.194576,NaN,practic_1,NaN,NaN,0.0,4.0,30.0
1,0,28,4,1,1,0,0.5247045,0.5247045,226.43137,NaN,practic_1,NaN,NaN,0.0,4.0,30.0
1,0,28,3,1,1,0,0.60745233,0.60745233,47.784306,NaN,practic_1,NaN,NaN,0.0,4.0,30.0
1,0,28,2,1,1,0,0.9134252,0.9134252,64.58975,NaN,practic_1,NaN,NaN,0.0,4.0,30.0
1,0,28,1,1,1,0,0.76362604,0.76362604,61.194576,NaN,practic_1,NaN,NaN,0.0,4.0,30.0
1,0,28,4,1,1,0,0.5247045,0.5247045,226.43137,NaN,practic_1,NaN,NaN,0.0,4.0,30.0
1,0,28,3,1,1,0,0.60745233,0.60745233,47.784306,NaN,practic_1,NaN,NaN,0.0,4.0,30.0
1,0,28,2,1,1,0,0.9134252,0.9134252,64.58975,NaN,practic_1,NaN,NaN,0.0,4.0,30.0
1,0,28,1,1,1,0,0.76362604,0.76362604,61.194576,NaN,practic_1,NaN,NaN,0.0,4.0,30.0
1,0,28,4,1,1,0,0.5247045,0.5247045,226.43137,NaN,practic_1,NaN,NaN,0.0,4.0,30.0
1,0,28,3,1,1,0,0.60745233,0.60745233,47.784306,NaN,practic_1,NaN,NaN,0.0,4.0,30.0
1,0,28,2,1,1,0,0.9134252,0.9134252,64.58975,NaN,practic_1,NaN,NaN,0.0,4.0,30.0
1,0,28,1,1,1,0,0.76362604,0.76362604,61.194576,NaN,practic_1,NaN,NaN,0.0,4.0,30.0
1,0,28,4,1,1,0,0.5247045,0.5247045,226.43137,NaN,practic_1,NaN,NaN,0.0,4.0,30.0
1,0,28,3,1,1,0,0.60745233,0.60745233,47.784306,NaN,practic_1,NaN,NaN,0.0,4.0,30.0
1,0,28,2,1,1,0,0.9134252,0.9134252,64.58975,NaN,practic_1,NaN,NaN,0.0,4.0,30.0
1,0,28,1,1,1,0,0.76362604,0.76362604,61.194576,NaN,practic_1,NaN,NaN,0.0,4.0,30.0
1,0,28,4,1,1,0,0.5247045,0.5247045,226.43137,NaN,practic_1,NaN,NaN,0.0,4.0,30.0
1,0,28,3,1,1,0,0.60745233,0.60745233,47.784306,NaN,practic_1,NaN,NaN,0.0,4.0,30.0
1,0,28,2,1,1,0,0.9134252,0.9134252,64.58975,NaN,practic_1,NaN,NaN,0.0,4.0,30.0
1,0,28,1,1,1,0,0.76362604,0.76362604,61.194576,NaN,practic_1,NaN,NaN,0.0,4.0,30.0
1,0,28,4,1,1,0,0.5247045,0.5247045,226.43137,NaN,practic_1,NaN,NaN,0.0,4.0,30.0
1,0,28,3,1,1,0,0.60745233,0.60745233,47.784306,NaN,practic_1,NaN,NaN,0.0,4.0,30.0
1,0,28,2,1,1,0,0.9134252,0.9134252,64.58975,NaN,practic_1,NaN,NaN,0.0,4.0,30.0
1,0,28,1,1,1,0,0.76362604,0.76362604,61.194576,NaN,practic_1,NaN,NaN,0.0,4.0,30.0
1,0,28,4,1,1,0,0.5247045,0.5247045,226.43137,NaN,practic_1,NaN,NaN,0.0,4.0,30.0
1,0,28,3,1,1,0,0.60745233,0.60745233,47.784306,NaN,practic_1,NaN,NaN,0.0,4.0,30.0
1,0,28,2,1,1,0,0.9134252,0.9134252,64.58975,NaN,practic_1,NaN,NaN,0.0,4.0,30.0
1,0,28,1,1,1,0,0.76362604,0.76362604,61.194576,NaN,practic_1,NaN,NaN,0.0,4.0,30.0
1,0,27,4,1,1,0,0.5247045,0.5247045,226.43137,NaN,practic_1,NaN,NaN,0.0,4.0,30.0
1,0,27,3,1,1,0,0.60745233,0.60745233,47.784306,NaN,practic_1,NaN,NaN,0.0,4.0,30.0
1,0,27,2,1,1,0,0.9134252,0.9134252,64.58975,NaN,practic_1,NaN,NaN,0.0,4.0,30.0
1,0,27,1,1,1,0,0.76362604,0.76362604,61.194576,NaN,practic_1,NaN,NaN,0.0,4.0,30.0
1,0,27,4,1,1,0,0.5247045,0.5247045,226.43137,NaN,practic_1,NaN,NaN,0.0,4.0,30.0
1,0,27,3,1,1,0,0.60745233,0.60745233,47.784306,NaN,practic_1,NaN,NaN,0.0,4.0,30.0
1,0,27,2,1,1,0,0.9134252,0.9134252,64.58975,NaN,practic_1,NaN,NaN,0.0,4.0,30.0
1,0,27,1,1,1,0,0.76362604,0.76362604,61.194576,NaN,practic_1,NaN,NaN,0.0,4.0,30.0
1,0,27,4,1,1,0,0.5247045,0.5247045,226.43137,NaN,practic_1,NaN,NaN,0.0,4.0,30.0
1,0,27,3,1,1,0,0.60745233,0.60745233,47.784306,NaN,practic_1,NaN,NaN,0.0,4.0,30.0
1,0,27,2,1,1,0,0.9134252,0.9134252,64.58975,NaN,practic_1,NaN,NaN,0.0,4.0,30.0
1,0,27,1,1,1,0,0.76362604,0.76362604,61.194576,NaN,practic_1,NaN,NaN,0.0,4.0,30.0
1,0,27,4,1,1,0,0.5247045,0.5247045,226.43137,NaN,practic_1,NaN,NaN,0.0,4.0,30.0
1,0,27,3,1,1,0,0.60745233,0.60745233,47.784306,NaN,practic_1,NaN,NaN,0.0,4.0,30.0
1,0,27,2,1,1,0,0.9134252,0.9134252,64.58975,NaN,practic_1,NaN,NaN,0.0,4.0,30.0
1,0,27,1,1,1,0,0.76362604,0.76362604,61.194576,NaN,practic_1,NaN,NaN,0.0,4.0,30.0
1,0,27,4,1,1,0,0.5247045,0.5247045,226.43137,NaN,practic_1,NaN,NaN,0.0,4.0,30.0
1,0,27,3,1,1,0,0.60745233,0.60745233,47.784306,NaN,practic_1,NaN,NaN,0.0,4.0,30.0
1,0,27,2,1,1,0,0.9134252,0.9134252,64.58975,NaN,practic_1,NaN,NaN,0.0,4.0,30.0
1,0,27,1,1,1,0,0.76362604,0.76362604,61.194576,NaN,practic_1,NaN,NaN,0.0,4.0,30.0
1,0,27,4,1,1,0,0.5247045,0.5247045,226.43137,NaN,practic_1,NaN,NaN,0.0,4.0,30.0
1,0,27,3,1,1,0,0.60745233,0.60745233,47.784306,NaN,practic_1,NaN,NaN,0.0,4.0,30.0
1,0,27,2,1,1,0,0.9134252,0.9134252,64.58975,NaN,practic_1,NaN,NaN,0.0,4.0,30.0
1,0,27,1,1,1,0,0.76362604,0.76362604,61.194576,NaN,practic_1,NaN,NaN,0.0,4.0,30.0
1,0,27,4,1,1,0,0.5247045,0.5247045,226.43137,NaN,practic_1,NaN,NaN,0.0,4.0,30.0
1,0,27,3,1,1,0,0.60745233,0.60745233,47.784306,NaN,practic_1,NaN,NaN,0.0,4.0,30.0
1,0,27,2,1,1,0,0.9134252,0.9134252,64.58975,NaN,practic_1,NaN,NaN,0.0,4.0,30.0
1,0,27,1,1,1,0,0.76362604,0.76362604,61.194576,NaN,practic_1,NaN,NaN,0.0,4.0,30.0
1,0,27,4,1,1,0,0.5247045,0.5247045,226.43137,NaN,practic_1,NaN,NaN,0.0,4.0,30.0
1,0,27,3,1,1,0,0.60745233,0.60745233,47.784306,NaN,practic_1,NaN,NaN,0.0,4.0,30.0
1,0,27,2,1,1,0,0.9134252,0.9134252,64.58975,NaN,practic_1,NaN,NaN,0.0,4.0,30.0
1,0,27,1,1,1,0,0.76362604,0.76362604,61.194576,NaN,practic_1,NaN,NaN,0.0,4.0,30.0
1,0,27,4,1,1,0,0.5247045,0.5247045,226.43137,NaN,practic_1,NaN,NaN,0.0,4.0,30.0
1,0,27,3,1,1,0,0.60745233,0.60745233,47.784306,NaN,practic_1,NaN,NaN,0.0,4.0,30.0
1,0,27,2,1,1,0,0.9134252,0.9134252,64.58975,NaN,practic_1,NaN,NaN,0.0,4.0,30.0
1,0,27,1,1,1,0,0.76362604,0.76362604,61.194576,NaN,practic_1,NaN,NaN,0.0,4.0,30.0
1,0,27,4,1,1,0,0.5247045,0.5247045,226.43137,NaN,practic_1,NaN,NaN,0.0,4.0,30.0
1,0,27,3,1,1,0,0.60745233,0.60745233,47.784306,NaN,practic_1,NaN,NaN,0.0,4.0,30.0
1,0,27,2,1,1,0,0.9134252,0.9134252,64.58975,NaN,practic_1,NaN,NaN,0.0,4.0,30.0
1,0,27,1,1,1,0,0.76362604,0.76362604,61.194576,NaN,practic_1,NaN,NaN,0.0,4.0,30.0
1,0,26,4,1,1,0,0.5247045,0.5247045,226.43137,NaN,practic_1,NaN,NaN,0.0,4.0,30.0
1,0,26,3,1,1,0,0.60745233,0.60745233,47.784306,NaN,practic_1,NaN,NaN,0.0,4.0,30.0
1,0,26,2,1,1,0,0.9134252,0.9134252,64.58975,NaN,practic_1,NaN,NaN,0.0,4.0,30.0
1,0,26,1,1,1,0,0.76362604,0.76362604,61.194576,NaN,practic_1,NaN,NaN,0.0,4.0,30.0
1,0,26,4,1,1,0,0.5247045,0.5247045,226.43137,NaN,practic_1,NaN,NaN,0.0,4.0,30.0
1,0,26,3,1,1,0,0.60745233,0.60745233,47.784306,NaN,practic_1,NaN,NaN,0.0,4.0,30.0
1,0,26,2,1,1,0,0.9134252,0.9134252,64.58975,NaN,practic_1,NaN,NaN,0.0,4.0,30.0
1,0,26,1,1,1,0,0.76362604,0.76362604,61.194576,NaN,practic_1,NaN,NaN,0.0,4.0,30.0
1,0,26,4,1,1,0,0.5247045,0.5247045,226.43137,NaN,practic_1,NaN,NaN,0.0,4.0,30.0
1,0,26,3,1,1,0,0.60745233,0.60745233,47.784306,NaN,practic_1,NaN,NaN,0.0,4.0,30.0
1,0,26,2,1,1,0,0.9134252,0.9134252,64.58975,NaN,practic_1,NaN,NaN,0.0,4.0,30.0
1,0,26,1,1,1,0,0.76362604,0.76362604,61.194576,NaN,practic_1,NaN,NaN,0.0,4.0,30.0
1,0,26,4,1,1,0,0.5247045,0.5247045,226.43137,NaN,practic_1,NaN,NaN,0.0,4.0,30.0
1,0,26,3,1,1,0,0.60745233,0.60745233,47.784306,NaN,practic_1,NaN,NaN,0.0,4.0,30.0
1,0,26,2,1,1,0,0.9134252,0.9134252,64.58975,NaN,practic_1,NaN,NaN,0.0,4.0,30.0
1,0,26,1,1,1,0,0.76362604,0.76362604,61.194576,NaN,practic_1,NaN,NaN,0.0,4.0,30.0
1,0,26,4,1,1,0,0.5247045,0.5247045,226.43137,NaN,practic_1,NaN,NaN,0.0,4.0,30.0
1,0,26,3,1,1,0,0.60745233,0.60745233,47.784306,NaN,practic_1,NaN,NaN,0.0,4.0,30.0
1,0,26,2,1,1,0,0.9134252,0.9134252,64.58975,NaN,practic_1,NaN,NaN,0.0,4.0,30.0
1,0,26,1,1,1,0,0.76362604,0.76362604,61.194576,NaN,practic_1,NaN,NaN,0.0,4.0,30.0
1,0,26,4,1,1,0,0.5247045,0.5247045,226.43137,NaN,practic_1,NaN,NaN,0.0,4.0,30.0
1,0,26,3,1,1,0,0.60745233,0.60745233,47.784306,NaN,practic_1,NaN,NaN,0.0,4.0,30.0
1,0,26,2,1,1,0,0.9134252,0.9134252,64.58975,NaN,practic_1,NaN,NaN,0.0,4.0,30.0
1,0,26,1,1,1,0,0.76362604,0.76362604,61.194576,NaN,practic_1,NaN,NaN,0.0,4.0,30.0
1,0,26,4,1,1,0,0.5247045,0.5247045,226.43137,NaN,practic_1,NaN,NaN,0.0,4.0,30.0
1,0,26,3,1,1,0,0.60745233,0.60745233,47.784306,NaN,practic_1,NaN,NaN,0.0,4.0,30.0
1,0,26,2,1,1,0,0.9134252,0.9134252,64.58975,NaN,practic_1,NaN,NaN,0.0,4.0,30.0
1,0,26,1,1,1,0,0.76362604,0.76362604,61.194576,NaN,practic_1,NaN,NaN,0.0,4.0,30.0
1,0,26,4,1,1,0,0.5247045,0.5247045,226.43137,NaN,practic_1,NaN,NaN,0.0,4.0,30.0
1,0,26,3,1,1,0,0.60745233,0.60745233,47.784306,NaN,practic_1,NaN,NaN,0.0,4.0,30.0
1,0,26,2,1,1,0,0.9134252,0.9134252,64.58975,NaN,practic_1,NaN,NaN,0.0,4.0,30.0
1,0,26,1,1,1,0,0.76362604,0.76362604,61.194576,NaN,practic_1,NaN,NaN,0.0,4.0,30.0
1,0,26,4,1,1,0,0.5247045,0.5247045,226.43137,NaN,practic_1,NaN,NaN,0.0,4.0,30.0
1,0,26,3,1,1,0,0.60745233,0.60745233,47.784306,NaN,practic_1,NaN,NaN,0.0,4.0,30.0
1,0,26,2,1,1,0,0.9134252,0.9134252,64.58975,NaN,practic_1,NaN,NaN,0.0,4.0,30.0
1,0,26,1,1,1,0,0.76362604,0.76362604,61.194576,NaN,practic_1,NaN,NaN,0.0,4.0,30.0
1,0,26,4,1,1,0,0.5247045,0.5247045,226.43137,NaN,practic_1,NaN,NaN,0.0,4.0,30.0
1,0,26,3,1,1,0,0.60745233,0.60745233,47.784306,NaN,practic_1,NaN,NaN,0.0,4.0,30.0
1,0,26,2,1,1,0,0.9134252,0.9134252,64.58975,NaN,practic_1,NaN,NaN,0.0,4.0,30.0
1,0,26,1,1,1,0,0.76362604,0.76362604,61.194576,NaN,practic_1,NaN,NaN,0.0,4.0,30.0
1,0,25,4,1,1,0,0.5247045,0.5247045,226.43137,NaN,practic_1,NaN,NaN,0.0,4.0,30.0
1,0,25,3,1,1,0,0.60745233,0.60745233,47.784306,NaN,practic_1,NaN,NaN,0.0,4.0,30.0
1,0,25,2,1,1,0,0.9134252,0.9134252,64.58975,NaN,practic_1,NaN,NaN,0.0,4.0,30.0
1,0,25,1,1,1,0,0.76362604,0.76362604,61.194576,NaN,practic_1,NaN,NaN,0.0,4.0,30.0
1,0,25,4,1,1,0,0.5247045,0.5247045,226.43137,NaN,practic_1,NaN,NaN,0.0,4.0,30.0
1,0,25,3,1,1,0,0.60745233,0.60745233,47.784306,NaN,practic_1,NaN,NaN,0.0,4.0,30.0
1,0,25,2,1,1,0,0.9134252,0.9134252,64.58975,NaN,practic_1,NaN,NaN,0.0,4.0,30.0
1,0,25,1,1,1,0,0.76362604,0.76362604,61.194576,NaN,practic_1,NaN,NaN,0.0,4.0,30.0
1,0,25,4,1,1,0,0.5247045,0.5247045,226.43137,NaN,practic_1,NaN,NaN,0.0,4.0,30.0
1,0,25,3,1,1,0,0.60745233,0.60745233,47.784306,NaN,practic_1,NaN,NaN,0.0,4.0,30.0
1,0,25,2,1,1,0,0.9134252,0.9134252,64.58975,NaN,practic_1,NaN,NaN,0.0,4.0,30.0
1,0,25,1,1,1,0,0.76362604,0.76362604,61.194576,NaN,practic_1,NaN,NaN,0.0,4.0,30.0
1,0,25,4,1,1,0,0.5247045,0.5247045,226.43137,NaN,practic_1,NaN,NaN,0.0,4.0,30.0
1,0,25,3,1,1,0,0.60745233,0.60745233,47.784306,NaN,practic_1,NaN,NaN,0.0,4.0,30.0
1,0,25,2,1,1,0,0.9134252,0.9134252,64.58975,NaN,practic_1,NaN,NaN,0.0,4.0,30.0
1,0,25,1,1,1,0,0.76362604,0.76362604,61.194576,NaN,practic_1,NaN,NaN,0.0,4.0,30.0
1,0,25,4,1,1,0,0.5247045,0.5247045,226.43137,NaN,practic_1,NaN,NaN,0.0,4.0,30.0
1,0,25,3,1,1,0,0.60745233,0.60745233,47.784306,NaN,practic_1,NaN,NaN,0.0,4.0,30.0
1,0,25,2,1,1,0,0.9134252,0.9134252,64.58975,NaN,practic_1,NaN,NaN,0.0,4.0,30.0
1,0,25,1,1,1,0,0.76362604,0.76362604,61.194576,NaN,practic_1,NaN,NaN,0.0,4.0,30.0
1,0,25,4,1,1,0,0.5247045,0.5247045,226.43137,NaN,practic_1,NaN,NaN,0.0,4.0,30.0
1,0,25,3,1,1,0,0.60745233,0.60745233,47.784306,NaN,practic_1,NaN,NaN,0.0,4.0,30.0
1,0,25,2,1,1,0,0.9134252,0.9134252,64.58975,NaN,practic_1,NaN,NaN,0.0,4.0,30.0
1,0,25,1,1,1,0,0.76362604,0.76362604,61.194576,NaN,practic_1,NaN,NaN,0.0,4.0,30.0
1,0,25,4,1,1,0,0.5247045,0.5247045,226.43137,NaN,practic_1,NaN,NaN,0.0,4.0,30.0
1,0,25,3,1,1,0,0.60745233,0.60745233,47.784306,NaN,practic_1,NaN,NaN,0.0,4.0,30.0
1,0,25,2,1,1,0,0.9134252,0.9134252,64.58975,NaN,practic_1,NaN,NaN,0.0,4.0,30.0
1,0,25,1,1,1,0,0.76362604,0.76362604,61.194576,NaN,practic_1,NaN,NaN,0.0,4.0,30.0
1,0,25,4,1,1,0,0.5247045,0.5247045,226.43137,NaN,practic_1,NaN,NaN,0.0,4.0,30.0
1,0,25,3,1,1,0,0.60745233,0.60745233,47.784306,NaN,practic_1,NaN,NaN,0.0,4.0,30.0
1,0,25,2,1,1,0,0.9134252,0.9134252,64.58975,NaN,practic_1,NaN,NaN,0.0,4.0,30.0
1,0,25,1,1,1,0,0.76362604,0.76362604,61.194576,NaN,practic_1,NaN,NaN,0.0,4.0,30.0
1,0,25,4,1,1,0,0.5247045,0.5247045,226.43137,NaN,practic_1,NaN,NaN,0.0,4.0,30.0
1,0,25,3,1,1,0,0.60745233,0.60745233,47.784306,NaN,practic_1,NaN,NaN,0.0,4.0,30.0
1,0,25,2,1,1,0,0.9134252,0.9134252,64.58975,NaN,practic_1,NaN,NaN,0.0,4.0,30.0
1,0,25,1,1,1,0,0.76362604,0.76362604,61.194576,NaN,practic_1,NaN,NaN,0.0,4.0,30.0
1,0,25,4,1,1,0,0.5247045,0.5247045,226.43137,NaN,practic_1,NaN,NaN,0.0,4.0,30.0
1,0,25,3,1,1,0,0.60745233,0.60745233,47.784306,NaN,practic_1,NaN,NaN,0.0,4.0,30.0
1,0,25,2,1,1,0,0.9134252,0.9134252,64.58975,NaN,practic_1,NaN,NaN,0.0,4.0,30.0
1,0,25,1,1,1,0,0.76362604,0.76362604,61.194576,NaN,practic_1,NaN,NaN,0.0,4.0,30.0
1,0,24,4,1,1,0,0.5247045,0.5247045,226.43137,NaN,practic_1,NaN,NaN,0.0,4.0,30.0
1,0,24,3,1,1,0,0.60745233,0.60745233,47.784306,NaN,practic_1,NaN,NaN,0.0,4.0,30.0
1,0,24,2,1,1,0,0.9134252,0.9134252,64.58975,NaN,practic_1,NaN,NaN,0.0,4.0,30.0
1,0,24,1,1,1,0,0.76362604,0.76362604,61.194576,NaN,practic_1,NaN,NaN,0.0,4.0,30.0
1,0,24,4,1,1,0,0.5247045,0.5247045,226.43137,NaN,practic_1,NaN,NaN,0.0,4.0,30.0
1,0,24,3,1,1,0,0.60745233,0.60745233,47.784306,NaN,practic_1,NaN,NaN,0.0,4.0,30.0
1,0,24,2,1,1,0,0.9134252,0.9134252,64.58975,NaN,practic_1,NaN,NaN,0.0,4.0,30.0
1,0,24,1,1,1,0,0.76362604,0.76362604,61.194576,NaN,practic_1,NaN,NaN,0.0,4.0,30.0
1,0,24,4,1,1,0,0.5247045,0.5247045,226.43137,NaN,practic_1,NaN,NaN,0.0,4.0,30.0
1,0,24,3,1,1,0,0.60745233,0.60745233,47.784306,NaN,practic_1,NaN,NaN,0.0,4.0,30.0
1,0,24,2,1,1,0,0.9134252,0.9134252,64.58975,NaN,practic_1,NaN,NaN,0.0,4.0,30.0
1,0,24,1,1,1,0,0.76362604,0.76362604,61.194576,NaN,practic_1,NaN,NaN,0.0,4.0,30.0
1,0,24,4,1,1,0,0.5247045,0.5247045,226.43137,NaN,practic_1,NaN,NaN,0.0,4.0,30.0
1,0,24,3,1,1,0,0.60745233,0.60745233,47.784306,NaN,practic_1,NaN,NaN,0.0,4.0,30.0
1,0,24,2,1,1,0,0.9134252,0.9134252,64.58975,NaN,practic_1,NaN,NaN,0.0,4.0,30.0
1,0,24,1,1,1,0,0.76362604,0.76362604,61.194576,NaN,practic_1,NaN,NaN,0.0,4.0,30.0
1,0,24,4,1,1,0,0.5247045,0.5247045,226.43137,NaN,practic_1,NaN,NaN,0.0,4.0,30.0
1,0,24,3,1,1,0,0.60745233,0.60745233,47.784306,NaN,practic_1,NaN,NaN,0.0,4.0,30.0
1,0,24,2,1,1,0,0.9134252,0.9134252,64.58975,NaN,practic_1,NaN,NaN,0.0,4.0,30.0
1,0,24,1,1,1,0,0.76362604,0.76362604,61.194576,NaN,practic_1,NaN,NaN,0.0,4.0,30.0
1,0,24,4,1,1,0,0.5247045,0.5247045,226.43137,NaN,practic_1,NaN,NaN,0.0,4.0,30.0
1,0,24,3,1,1,0,0.60745233,0.60745233,47.784306,NaN,practic_1,NaN,NaN,0.0,4.0,30.0
1,0,24,2,1,1,0,0.9134252,0.9134252,64.58975,NaN,practic_1,NaN,NaN,0.0,4.0,30.0
1,0,24,1,1,1,0,0.76362604,0.76362604,61.194576,NaN,practic_1,NaN,NaN,0.0,4.0,30.0
1,0,24,4,1,1,0,0.5247045,0.5247045,226.43137,NaN,practic_1,NaN,NaN,0.0,4.0,30.0
1,0,24,3,1,1,0,0.60745233,0.60745233,47.784306,NaN,practic_1,NaN,NaN,0.0,4.0,30.0
1,0,24,2,1,1,0,0.9134252,0.9134252,64.58975,NaN,practic_1,NaN,NaN,0.0,4.0,30.0
1,0,24,1,1,1,0,0.76362604,0.76362604,61.194576,NaN,practic_1,NaN,NaN,0.0,4.0,30.0
1,0,24,4,1,1,0,0.5247045,0.5247045,226.43137,NaN,practic_1,NaN,NaN,0.0,4.0,30.0
1,0,24,3,1,1,0,0.60745233,0.60745233,47.784306,NaN,practic_1,NaN,NaN,0.0,4.0,30.0
1,0,24,2,1,1,0,0.9134252,0.9134252,64.58975,NaN,practic_1,NaN,NaN,0.0,4.0,30.0
1,0,24,1,1,1,0,0.76362604,0.76362604,61.194576,NaN,practic_1,NaN,NaN,0.0,4.0,30.0
1,0,24,4,1,1,0,0.5247045,0.5247045,226.43137,NaN,practic_1,NaN,NaN,0.0,4.0,30.0
1,0,24,3,1,1,0,0.60745233,0.60745233,47.784306,NaN,practic_1,NaN,NaN,0.0,4.0,30.0
1,0,24,2,1,1,0,0.9134252,0.9134252,64.58975,NaN,practic_1,NaN,NaN,0.0,4.0,30.0
1,0,24,1,1,1,0,0.76362604,0.76362604,61.194576,NaN,practic_1,NaN,NaN,0.0,4.0,30.0
1,0,24,4,1,1,0,0.5247045,0.5247045,226.43137,NaN,practic_1,NaN,NaN,0.0,4.0,30.0
1,0,24,3,1,1,0,0.60745233,0.60745233,47.784306,NaN,practic_1,NaN,NaN,0.0,4.0,30.0
1,0,24,2,1,1,0,0.9134252,0.9134252,64.58975,NaN,practic_1,NaN,NaN,0.0,4.0,30.0
1,0,24,1,1,1,0,0.76362604,0.76362604,61.194576,NaN,practic_1,NaN,NaN,0.0,4.0,30.0
1,0,23,4,1,1,0,0.5247045,0.5247045,226.43137,NaN,practic_1,NaN,NaN,0.0,4.0,30.0
1,0,23,3,1,1,0,0.60745233,0.60745233,47.784306,NaN,practic_1,NaN,NaN,0.0,4.0,30.0
1,0,23,2,1,1,0,0.9134252,0.9134252,64.58975,NaN,practic_1,NaN,NaN,0.0,4.0,30.0
1,0,23,1,1,1,0,0.76362604,0.76362604,61.194576,NaN,practic_1,NaN,NaN,0.0,4.0,30.0
1,0,23,4,1,1,0,0.5247045,0.5247045,226.43137,NaN,practic_1,NaN,NaN,0.0,4.0,30.0
1,0,23,3,1,1,0,0.60745233,0.60745233,47.784306,NaN,practic_1,NaN,NaN,0.0,4.0,30.0
1,0,23,2,1,1,0,0.9134252,0.9134252,64.58975,NaN,practic_1,NaN,NaN,0.0,4.0,30.0
1,0,23,1,1,1,0,0.76362604,0.76362604,61.194576,NaN,practic_1,NaN,NaN,0.0,4.0,30.0
1,0,23,4,1,1,0,0.5247045,0.5247045,226.43137,NaN,practic_1,NaN,NaN,0.0,4.0,30.0
1,0,23,3,1,1,0,0.60745233,0.60745233,47.784306,NaN,practic_1,NaN,NaN,0.0,4.0,30.0
1,0,23,2,1,1,0,0.9134252,0.9134252,64.58975,NaN,practic_1,NaN,NaN,0.0,4.0,30.0
1,0,23,1,1,1,0,0.76362604,0.76362604,61.194576,NaN,practic_1,NaN,NaN,0.0,4.0,30.0
1,0,23,4,1,1,0,0.5247045,0.5247045,226.43137,NaN,practic_1,NaN,NaN,0.0,4.0,30.0
1,0,23,3,1,1,0,0.60745233,0.60745233,47.784306,NaN,practic_1,NaN,NaN,0.0,4.0,30.0
1,0,23,2,1,1,0,0.9134252,0.9134252,64.58975,NaN,practic_1,NaN,NaN,0.0,4.0,30.0
1,0,23,1,1,1,0,0.76362604,0.76362604,61.194576,NaN,practic_1,NaN,NaN,0.0,4.0,30.0
1,0,23,4,1,1,0,0.5247045,0.5247045,226.43137,NaN,practic_1,NaN,NaN,0.0,4.0,30.0
1,0,23,3,1,1,0,0.60745233,0.60745233,47.784306,NaN,practic_1,NaN,NaN,0.0,4.0,30.0
1,0,23,2,1,1,0,0.9134252,0.9134252,64.58975,NaN,practic_1,NaN,NaN,0.0,4.0,30.0
1,0,23,1,1,1,0,0.76362604,0.76362604,61.194576,NaN,practic_1,NaN,NaN,0.0,4.0,30.0
1,0,23,4,1,1,0,0.5247045,0.5247045,226.43137,NaN,practic_1,NaN,NaN,0.0,4.0,30.0
1,0,23,3,1,1,0,0.60745233,0.60745233,47.784306,NaN,practic_1,NaN,NaN,0.0,4.0,30.0
1,0,23,2,1,1,0,0.9134252,0.9134252,64.58975,NaN,practic_1,NaN,NaN,0.0,4.0,30.0
1,0,23,1,1,1,0,0.76362604,0.76362604,61.194576,NaN,practic_1,NaN,NaN,0.0,4.0,30.0
1,0,23,4,1,1,0,0.5247045,0.5247045,226.43137,NaN,practic_1,NaN,NaN,0.0,4.0,30.0
1,0,23,3,1,1,0,0.60745233,0.60745233,47.784306,NaN,practic_1,NaN,NaN,0.0,4.0,30.0
1,0,23,2,1,1,0,0.9134252,0.9134252,64.58975,NaN,practic_1,NaN,NaN,0.0,4.0,30.0
1,0,23,1,1,1,0,0.76362604,0.76362604,61.194576,NaN,practic_1,NaN,NaN,0.0,4.0,30.0
1,0,23,4,1,1,0,0.5247045,0.5247045,226.43137,NaN,practic_1,NaN,NaN,0.0,4.0,30.0
1,0,23,3,1,1,0,0.60745233,0.60745233,47.784306,NaN,practic_1,NaN,NaN,0.0,4.0,30.0
1,0,23,2,1,1,0,0.9134252,0.9134252,64.58975,NaN,practic_1,NaN,NaN,0.0,4.0,30.0
1,0,23,1,1,1,0,0.76362604,0.76362604,61.194576,NaN,practic_1,NaN,NaN,0.0,4.0,30.0
1,0,23,4,1,1,0,0.5247045,0.5247045,226.43137,NaN,practic_1,NaN,NaN,0.0,4.0,30.0
1,0,23,3,1,1,0,0.60745233,0.60745233,47.784306,NaN,practic_1,NaN,NaN,0.0,4.0,30.0
1,0,23,2,1,1,0,0.9134252,0.9134252,64.58975,NaN,practic_1,NaN,NaN,0.0,4.0,30.0
1,0,23,1,1,1,0,0.76362604,0.76362604,61.194576,NaN,practic_1,NaN,NaN,0.0,4.0,30.0
1,0,23,4,1,1,0,0.5247045,0.5247045,226.43137,NaN,practic_1,NaN,NaN,0.0,4.0,30.0
1,0,23,3,1,1,0,0.60745233,0.60745233,47.784306,NaN,practic_1,NaN,NaN,0.0,4.0,30.0
1,0,23,2,1,1,0,0.9134252,0.9134252,64.58975,NaN,practic_1,NaN,NaN,0.0,4.0,30.0
1,0,23,1,1,1,0,0.76362604,0.76362604,61.194576,NaN,practic_1,NaN,NaN,0.0,4.0,30.0
1,0,22,4,1,1,0,0.5247045,0.5247045,226.43137,NaN,practic_1,NaN,NaN,0.0,4.0,30.0
1,0,22,3,1,1,0,0.60745233,0.60745233,47.784306,NaN,practic_1,NaN,NaN,0.0,4.0,30.0
1,0,22,2,1,1,0,0.9134252,0.9134252,64.58975,NaN,practic_1,NaN,NaN,0.0,4.0,30.0
1,0,22,1,1,1,0,0.76362604,0.76362604,61.194576,NaN,practic_1,NaN,NaN,0.0,4.0,30.0
1,0,22,4,1,1,0,0.5247045,0.5247045,226.43137,NaN,practic_1,NaN,NaN,0.0,4.0,30.0
1,0,22,3,1,1,0,0.60745233,0.60745233,47.784306,NaN,practic_1,NaN,NaN,0.0,4.0,30.0
1,0,22,2,1,1,0,0.9134252,0.9134252,64.58975,NaN,practic_1,NaN,NaN,0.0,4.0,30.0
1,0,22,1,1,1,0,0.76362604,0.76362604,61.194576,NaN,practic_1,NaN,NaN,0.0,4.0,30.0
1,0,22,4,1,1,0,0.5247045,0.5247045,226.43137,NaN,practic_1,NaN,NaN,0.0,4.0,30.0
1,0,22,3,1,1,0,0.60745233,0.60745233,47.784306,NaN,practic_1,NaN,NaN,0.0,4.0,30.0
1,0,22,2,1,1,0,0.9134252,0.9134252,64.58975,NaN,practic_1,NaN,NaN,0.0,4.0,30.0
1,0,22,1,1,1,0,0.76362604,0.76362604,61.194576,NaN,practic_1,NaN,NaN,0.0,4.0,30.0
1,0,22,4,1,1,0,0.5247045,0.5247045,226.43137,NaN,practic_1,NaN,NaN,0.0,4.0,30.0
1,0,22,3,1,1,0,0.60745233,0.60745233,47.784306,NaN,practic_1,NaN,NaN,0.0,4.0,30.0
1,0,22,2,1,1,0,0.9134252,0.9134252,64.58975,NaN,practic_1,NaN,NaN,0.0,4.0,30.0
1,0,22,1,1,1,0,0.76362604,0.76362604,61.194576,NaN,practic_1,NaN,NaN,0.0,4.0,30.0
1,0,22,4,1,1,0,0.5247045,0.5247045,226.43137,NaN,practic_1,NaN,NaN,0.0,4.0,30.0
1,0,22,3,1,1,0,0.60745233,0.60745233,47.784306,NaN,practic_1,NaN,NaN,0.0,4.0,30.0
1,0,22,2,1,1,0,0.9134252,0.9134252,64.58975,NaN,practic_1,NaN,NaN,0.0,4.0,30.0
1,0,22,1,1,1,0,0.76362604,0.76362604,61.194576,NaN,practic_1,NaN,NaN,0.0,4.0,30.0
1,0,22,4,1,1,0,0.5247045,0.5247045,226.43137,NaN,practic_1,NaN,NaN,0.0,4.0,30.0
1,0,22,3,1,1,0,0.60745233,0.60745233,47.784306,NaN,practic_1,NaN,NaN,0.0,4.0,30.0
1,0,22,2,1,1,0,0.9134252,0.9134252,64.58975,NaN,practic_1,NaN,NaN,0.0,4.0,30.0
1,0,22,1,1,1,0,0.76362604,0.76362604,61.194576,NaN,practic_1,NaN,NaN,0.0,4.0,30.0
1,0,22,4,1,1,0,0.5247045,0.5247045,226.43137,NaN,practic_1,NaN,NaN,0.0,4.0,30.0
1,0,22,3,1,1,0,0.60745233,0.60745233,47.784306,NaN,practic_1,NaN,NaN,0.0,4.0,30.0
1,0,22,2,1,1,0,0.9134252,0.9134252,64.58975,NaN,practic_1,NaN,NaN,0.0,4.0,30.0
1,0,22,1,1,1,0,0.76362604,0.76362604,61.194576,NaN,practic_1,NaN,NaN,0.0,4.0,30.0
1,0,22,4,1,1,0,0.5247045,0.5247045,226.43137,NaN,practic_1,NaN,NaN,0.0,4.0,30.0
1,0,22,3,1,1,0,0.60745233,0.60745233,47.784306,NaN,practic_1,NaN,NaN,0.0,4.0,30.0
1,0,22,2,1,1,0,0.9134252,0.9134252,64.58975,NaN,practic_1,NaN,NaN,0.0,4.0,30.0
1,0,22,1,1,1,0,0.76362604,0.76362604,61.194576,NaN,practic_1,NaN,NaN,0.0,4.0,30.0
1,0,22,4,1,1,0,0.5247045,0.5247045,226.43137,NaN,practic_1,NaN,NaN,0.0,4.0,30.0
1,0,22,3,1,1,0,0.60745233,0.60745233,47.784306,NaN,practic_1,NaN,NaN,0.0,4.0,30.0
1,0,22,2,1,1,0,0.9134252,0.9134252,64.58975,NaN,practic_1,NaN,NaN,0.0,4.0,30.0
1,0,22,1,1,1,0,0.76362604,0.76362604,61.194576,NaN,practic_1,NaN,NaN,0.0,4.0,30.0
1,0,22,4,1,1,0,0.5247045,0.5247045,226.43137,NaN,practic_1,NaN,NaN,0.0,4.0,30.0
1,0,22,3,1,1,0,0.60745233,0.60745233,47.784306,NaN,practic_1,NaN,NaN,0.0,4.0,30.0
1,0,22,2,1,1,0,0.9134252,0.9134252,64.58975,NaN,practic_1,NaN,NaN,0.0,4.0,30.0
1,0,22,1,1,1,0,0.76362604,0.76362604,61.194576,NaN,practic_1,NaN,NaN,0.0,4.0,30.0
1,0,21,4,1,1,0,0.5247045,0.5247045,226.43137,NaN,practic_1,NaN,NaN,0.0,4.0,30.0
1,0,21,3,1,1,0,0.60745233,0.60745233,47.784306,NaN,practic_1,NaN,NaN,0.0,4.0,30.0
1,0,21,2,1,1,0,0.9134252,0.9134252,64.58975,NaN,practic_1,NaN,NaN,0.0,4.0,30.0
1,0,21,1,1,1,0,0.76362604,0.76362604,61.194576,NaN,practic_1,NaN,NaN,0.0,4.0,30.0
1,0,21,4,1,1,0,0.5247045,0.5247045,226.43137,NaN,practic_1,NaN,NaN,0.0,4.0,30.0
1,0,21,3,1,1,0,0.60745233,0.60745233,47.784306,NaN,practic_1,NaN,NaN,0.0,4.0,30.0
1,0,21,2,1,1,0,0.9134252,0.9134252,64.58975,NaN,practic_1,NaN,NaN,0.0,4.0,30.0
1,0,21,1,1,1,0,0.76362604,0.76362604,61.194576,NaN,practic_1,NaN,NaN,0.0,4.0,30.0
1,0,21,4,1,1,0,0.5247045,0.5247045,226.43137,NaN,practic_1,NaN,NaN,0.0,4.0,30.0
1,0,21,3,1,1,0,0.60745233,0.60745233,47.784306,NaN,practic_1,NaN,NaN,0.0,4.0,30.0
1,0,21,2,1,1,0,0.9134252,0.9134252,64.58975,NaN,practic_1,NaN,NaN,0.0,4.0,30.0
1,0,21,1,1,1,0,0.76362604,0.76362604,61.194576,NaN,practic_1,NaN,NaN,0.0,4.0,30.0
1,0,21,4,1,1,0,0.5247045,0.5247045,226.43137,NaN,practic_1,NaN,NaN,0.0,4.0,30.0
1,0,21,3,1,1,0,0.60745233,0.60745233,47.784306,NaN,practic_1,NaN,NaN,0.0,4.0,30.0
1,0,21,2,1,1,0,0.9134252,0.9134252,64.58975,NaN,practic_1,NaN,NaN,0.0,4.0,30.0
1,0,21,1,1,1,0,0.76362604,0.76362604,61.194576,NaN,practic_1,NaN,NaN,0.0,4.0,30.0
1,0,21,4,1,1,0,0.5247045,0.5247045,226.43137,NaN,practic_1,NaN,NaN,0.0,4.0,30.0
1,0,21,3,1,1,0,0.60745233,0.60745233,47.784306,NaN,practic_1,NaN,NaN,0.0,4.0,30.0
1,0,21,2,1,1,0,0.9134252,0.9134252,64.58975,NaN,practic_1,NaN,NaN,0.0,4.0,30.0
1,0,21,1,1,1,0,0.76362604,0.76362604,61.194576,NaN,practic_1,NaN,NaN,0.0,4.0,30.0
1,0,21,4,1,1,0,0.5247045,0.5247045,226.43137,NaN,practic_1,NaN,NaN,0.0,4.0,30.0
1,0,21,3,1,1,0,0.60745233,0.60745233,47.784306,NaN,practic_1,NaN,NaN,0.0,4.0,30.0
1,0,21,2,1,1,0,0.9134252,0.9134252,64.58975,NaN,practic_1,NaN,NaN,0.0,4.0,30.0
1,0,21,1,1,1,0,0.76362604,0.76362604,61.194576,NaN,practic_1,NaN,NaN,0.0,4.0,30.0
1,0,21,1,1,1,0,0.76362604,0.76362604,61.194576,NaN,practic_1,NaN,NaN,0.0,4.0,30.0
1,0,21,4,1,1,0,0.5247045,0.5247045,226.43137,NaN,practic_1,NaN,NaN,0.0,4.0,30.0
1,0,21,3,1,1,0,0.60745233,0.60745233,47.784306,NaN,practic_1,NaN,NaN,0.0,4.0,30.0
1,0,21,2,1,1,0,0.9134252,0.9134252,64.58975,NaN,practic_1,NaN,NaN,0.0,4.0,30.0
1,0,21,4,1,1,0,0.5247045,0.5247045,226.43137,NaN,practic_1,NaN,NaN,0.0,4.0,30.0
1,0,21,3,1,1,0,0.60745233,0.60745233,47.784306,NaN,practic_1,NaN,NaN,0.0,4.0,30.0
1,0,21,2,1,1,0,0.9134252,0.9134252,64.58975,NaN,practic_1,NaN,NaN,0.0,4.0,30.0
1,0,21,1,1,1,0,0.76362604,0.76362604,61.194576,NaN,practic_1,NaN,NaN,0.0,4.0,30.0
1,0,21,4,1,1,0,0.5247045,0.5247045,226.43137,NaN,practic_1,NaN,NaN,0.0,4.0,30.0
1,0,21,3,1,1,0,0.60745233,0.60745233,47.784306,NaN,practic_1,NaN,NaN,0.0,4.0,30.0
1,0,21,2,1,1,0,0.9134252,0.9134252,64.58975,NaN,practic_1,NaN,NaN,0.0,4.0,30.0
1,0,21,1,1,1,0,0.76362604,0.76362604,61.194576,NaN,practic_1,NaN,NaN,0.0,4.0,30.0
1,0,21,4,1,1,0,0.5247045,0.5247045,226.43137,NaN,practic_1,NaN,NaN,0.0,4.0,30.0
1,0,21,3,1,1,0,0.60745233,0.60745233,47.784306,NaN,practic_1,NaN,NaN,0.0,4.0,30.0
1,0,21,2,1,1,0,0.9134252,0.9134252,64.58975,NaN,practic_1,NaN,NaN,0.0,4.0,30.0
1,0,21,1,1,1,0,0.76362604,0.76362604,61.194576,NaN,practic_1,NaN,NaN,0.0,4.0,30.0
1,0,20,4,1,1,0,0.5247045,0.5247045,226.43137,NaN,practic_1,NaN,NaN,0.0,4.0,30.0
1,0,20,3,1,1,0,0.60745233,0.60745233,47.784306,NaN,practic_1,NaN,NaN,0.0,4.0,30.0
1,0,20,2,1,1,0,0.9134252,0.9134252,64.58975,NaN,practic_1,NaN,NaN,0.0,4.0,30.0
1,0,20,1,1,1,0,0.76362604,0.76362604,61.194576,NaN,practic_1,NaN,NaN,0.0,4.0,30.0
1,0,20,4,1,1,0,0.5247045,0.5247045,226.43137,NaN,practic_1,NaN,NaN,0.0,4.0,30.0
1,0,20,3,1,1,0,0.60745233,0.60745233,47.784306,NaN,practic_1,NaN,NaN,0.0,4.0,30.0
1,0,20,2,1,1,0,0.9134252,0.9134252,64.58975,NaN,practic_1,NaN,NaN,0.0,4.0,30.0
1,0,20,1,1,1,0,0.76362604,0.76362604,61.194576,NaN,practic_1,NaN,NaN,0.0,4.0,30.0
1,0,20,4,1,1,0,0.5247045,0.5247045,226.43137,NaN,practic_1,NaN,NaN,0.0,4.0,30.0
1,0,20,3,1,1,0,0.60745233,0.60745233,47.784306,NaN,practic_1,NaN,NaN,0.0,4.0,30.0
1,0,20,2,1,1,0,0.9134252,0.9134252,64.58975,NaN,practic_1,NaN,NaN,0.0,4.0,30.0
1,0,20,1,1,1,0,0.76362604,0.76362604,61.194576,NaN,practic_1,NaN,NaN,0.0,4.0,30.0
1,0,20,4,1,1,0,0.5247045,0.5247045,226.43137,NaN,practic_1,NaN,NaN,0.0,4.0,30.0
1,0,20,3,1,1,0,0.60745233,0.60745233,47.784306,NaN,practic_1,NaN,NaN,0.0,4.0,30.0
1,0,20,2,1,1,0,0.9134252,0.9134252,64.58975,NaN,practic_1,NaN,NaN,0.0,4.0,30.0
1,0,20,1,1,1,0,0.76362604,0.76362604,61.194576,NaN,practic_1,NaN,NaN,0.0,4.0,30.0
1,0,20,4,1,1,0,0.5247045,0.5247045,226.43137,NaN,practic_1,NaN,NaN,0.0,4.0,30.0
1,0,20,3,1,1,0,0.60745233,0.60745233,47.784306,NaN,practic_1,NaN,NaN,0.0,4.0,30.0
1,0,20,2,1,1,0,0.9134252,0.9134252,64.58975,NaN,practic_1,NaN,NaN,0.0,4.0,30.0
1,0,20,1,1,1,0,0.76362604,0.76362604,61.194576,NaN,practic_1,NaN,NaN,0.0,4.0,30.0
1,0,20,4,1,1,0,0.5247045,0.5247045,226.43137,NaN,practic_1,NaN,NaN,0.0,4.0,30.0
1,0,20,3,1,1,0,0.60745233,0.60745233,47.784306,NaN,practic_1,NaN,NaN,0.0,4.0,30.0
1,0,20,2,1,1,0,0.9134252,0.9134252,64.58975,NaN,practic_1,NaN,NaN,0.0,4.0,30.0
1,0,20,1,1,1,0,0.76362604,0.76362604,61.194576,NaN,practic_1,NaN,NaN,0.0,4.0,30.0
1,0,20,4,1,1,0,0.5247045,0.5247045,226.43137,NaN,practic_1,NaN,NaN,0.0,4.0,30.0
1,0,20,3,1,1,0,0.60745233,0.60745233,47.784306,NaN,practic_1,NaN,NaN,0.0,4.0,30.0
1,0,20,2,1,1,0,0.9134252,0.9134252,64.58975,NaN,practic_1,NaN,NaN,0.0,4.0,30.0
1,0,20,1,1,1,0,0.76362604,0.76362604,61.194576,NaN,practic_1,NaN,NaN,0.0,4.0,30.0
1,0,20,2,1,1,0,0.9134252,0.9134252,64.58975,NaN,practic_1,NaN,NaN,0.0,4.0,30.0
1,0,20,1,1,1,0,0.76362604,0.76362604,61.194576,NaN,practic_1,NaN,NaN,0.0,4.0,30.0
1,0,20,4,1,1,0,0.5247045,0.5247045,226.43137,NaN,practic_1,NaN,NaN,0.0,4.0,30.0
1,0,20,3,1,1,0,0.60745233,0.60745233,47.784306,NaN,practic_1,NaN,NaN,0.0,4.0,30.0
1,0,20,4,1,1,0,0.5247045,0.5247045,226.43137,NaN,practic_1,NaN,NaN,0.0,4.0,30.0
1,0,20,3,1,1,0,0.60745233,0.60745233,47.784306,NaN,practic_1,NaN,NaN,0.0,4.0,30.0
1,0,20,2,1,1,0,0.9134252,0.9134252,64.58975,NaN,practic_1,NaN,NaN,0.0,4.0,30.0
1,0,20,1,1,1,0,0.76362604,0.76362604,61.194576,NaN,practic_1,NaN,NaN,0.0,4.0,30.0
1,0,20,4,1,1,0,0.5247045,0.5247045,226.43137,NaN,practic_1,NaN,NaN,0.0,4.0,30.0
1,0,20,3,1,1,0,0.60745233,0.60745233,47.784306,NaN,practic_1,NaN,NaN,0.0,4.0,30.0
1,0,20,2,1,1,0,0.9134252,0.9134252,64.58975,NaN,practic_1,NaN,NaN,0.0,4.0,30.0
1,0,20,1,1,1,0,0.76362604,0.76362604,61.194576,NaN,practic_1,NaN,NaN,0.0,4.0,30.0
1,0,19,4,1,1,0,0.5247045,0.5247045,226.43137,NaN,practic_1,NaN,NaN,0.0,4.0,30.0
1,0,19,3,1,1,0,0.60745233,0.60745233,47.784306,NaN,practic_1,NaN,NaN,0.0,4.0,30.0
1,0,19,2,1,1,0,0.9134252,0.9134252,64.58975,NaN,practic_1,NaN,NaN,0.0,4.0,30.0
1,0,19,1,1,1,0,0.76362604,0.76362604,61.194576,NaN,practic_1,NaN,NaN,0.0,4.0,30.0
1,0,19,4,1,1,0,0.5247045,0.5247045,226.43137,NaN,practic_1,NaN,NaN,0.0,4.0,30.0
1,0,19,3,1,1,0,0.60745233,0.60745233,47.784306,NaN,practic_1,NaN,NaN,0.0,4.0,30.0
1,0,19,2,1,1,0,0.9134252,0.9134252,64.58975,NaN,practic_1,NaN,NaN,0.0,4.0,30.0
1,0,19,1,1,1,0,0.76362604,0.76362604,61.194576,NaN,practic_1,NaN,NaN,0.0,4.0,30.0
1,0,19,4,1,1,0,0.5247045,0.5247045,226.43137,NaN,practic_1,NaN,NaN,0.0,4.0,30.0
1,0,19,3,1,1,0,0.60745233,0.60745233,47.784306,NaN,practic_1,NaN,NaN,0.0,4.0,30.0
1,0,19,2,1,1,0,0.9134252,0.9134252,64.58975,NaN,practic_1,NaN,NaN,0.0,4.0,30.0
1,0,19,1,1,1,0,0.76362604,0.76362604,61.194576,NaN,practic_1,NaN,NaN,0.0,4.0,30.0
1,0,19,4,1,1,0,0.5247045,0.5247045,226.43137,NaN,practic_1,NaN,NaN,0.0,4.0,30.0
1,0,19,3,1,1,0,0.60745233,0.60745233,47.784306,NaN,practic_1,NaN,NaN,0.0,4.0,30.0
1,0,19,2,1,1,0,0.9134252,0.9134252,64.58975,NaN,practic_1,NaN,NaN,0.0,4.0,30.0
1,0,19,1,1,1,0,0.76362604,0.76362604,61.194576,NaN,practic_1,NaN,NaN,0.0,4.0,30.0
1,0,19,4,1,1,0,0.5247045,0.5247045,226.43137,NaN,practic_1,NaN,NaN,0.0,4.0,30.0
1,0,19,3,1,1,0,0.60745233,0.60745233,47.784306,NaN,practic_1,NaN,NaN,0.0,4.0,30.0
1,0,19,2,1,1,0,0.9134252,0.9134252,64.58975,NaN,practic_1,NaN,NaN,0.0,4.0,30.0
1,0,19,1,1,1,0,0.76362604,0.76362604,61.194576,NaN,practic_1,NaN,NaN,0.0,4.0,30.0
1,0,19,4,1,1,0,0.5247045,0.5247045,226.43137,NaN,practic_1,NaN,NaN,0.0,4.0,30.0
1,0,19,3,1,1,0,0.60745233,0.60745233,47.784306,NaN,practic_1,NaN,NaN,0.0,4.0,30.0
1,0,19,2,1,1,0,0.9134252,0.9134252,64.58975,NaN,practic_1,NaN,NaN,0.0,4.0,30.0
1,0,19,1,1,1,0,0.76362604,0.76362604,61.194576,NaN,practic_1,NaN,NaN,0.0,4.0,30.0
1,0,19,4,1,1,0,0.5247045,0.5247045,226.43137,NaN,practic_1,NaN,NaN,0.0,4.0,30.0
1,0,19,3,1,1,0,0.60745233,0.60745233,47.784306,NaN,practic_1,NaN,NaN,0.0,4.0,30.0
1,0,19,2,1,1,0,0.9134252,0.9134252,64.58975,NaN,practic_1,NaN,NaN,0.0,4.0,30.0
1,0,19,1,1,1,0,0.76362604,0.76362604,61.194576,NaN,practic_1,NaN,NaN,0.0,4.0,30.0
1,0,19,4,1,1,0,0.5247045,0.5247045,226.43137,NaN,practic_1,NaN,NaN,0.0,4.0,30.0
1,0,19,3,1,1,0,0.60745233,0.60745233,47.784306,NaN,practic_1,NaN,NaN,0.0,4.0,30.0
1,0,19,2,1,1,0,0.9134252,0.9134252,64.58975,NaN,practic_1,NaN,NaN,0.0,4.0,30.0
1,0,19,1,1,1,0,0.76362604,0.76362604,61.194576,NaN,practic_1,NaN,NaN,0.0,4.0,30.0
1,0,19,4,1,1,0,0.5247045,0.5247045,226.43137,NaN,practic_1,NaN,NaN,0.0,4.0,30.0
1,0,19,3,1,1,0,0.60745233,0.60745233,47.784306,NaN,practic_1,NaN,NaN,0.0,4.0,30.0
1,0,19,2,1,1,0,0.9134252,0.9134252,64.58975,NaN,practic_1,NaN,NaN,0.0,4.0,30.0
1,0,19,1,1,1,0,0.76362604,0.76362604,61.194576,NaN,practic_1,NaN,NaN,0.0,4.0,30.0
1,0,19,4,1,1,0,0.5247045,0.5247045,226.43137,NaN,practic_1,NaN,NaN,0.0,4.0,30.0
1,0,19,3,1,1,0,0.60745233,0.60745233,47.784306,NaN,practic_1,NaN,NaN,0.0,4.0,30.0
1,0,19,2,1,1,0,0.9134252,0.9134252,64.58975,NaN,practic_1,NaN,NaN,0.0,4.0,30.0
1,0,19,1,1,1,0,0.76362604,0.76362604,61.194576,NaN,practic_1,NaN,NaN,0.0,4.0,30.0
1,0,18,4,1,1,0,0.5247045,0.5247045,226.43137,NaN,practic_1,NaN,NaN,0.0,4.0,30.0
1,0,18,3,1,1,0,0.60745233,0.60745233,47.784306,NaN,practic_1,NaN,NaN,0.0,4.0,30.0
1,0,18,2,1,1,0,0.9134252,0.9134252,64.58975,NaN,practic_1,NaN,NaN,0.0,4.0,30.0
1,0,18,1,1,1,0,0.76362604,0.76362604,61.194576,NaN,practic_1,NaN,NaN,0.0,4.0,30.0
1,0,18,4,1,1,0,0.5247045,0.5247045,226.43137,NaN,practic_1,NaN,NaN,0.0,4.0,30.0
1,0,18,3,1,1,0,0.60745233,0.60745233,47.784306,NaN,practic_1,NaN,NaN,0.0,4.0,30.0
1,0,18,2,1,1,0,0.9134252,0.9134252,64.58975,NaN,practic_1,NaN,NaN,0.0,4.0,30.0
1,0,18,1,1,1,0,0.76362604,0.76362604,61.194576,NaN,practic_1,NaN,NaN,0.0,4.0,30.0
1,0,18,4,1,1,0,0.5247045,0.5247045,226.43137,NaN,practic_1,NaN,NaN,0.0,4.0,30.0
1,0,18,3,1,1,0,0.60745233,0.60745233,47.784306,NaN,practic_1,NaN,NaN,0.0,4.0,30.0
1,0,18,2,1,1,0,0.9134252,0.9134252,64.58975,NaN,practic_1,NaN,NaN,0.0,4.0,30.0
1,0,18,1,1,1,0,0.76362604,0.76362604,61.194576,NaN,practic_1,NaN,NaN,0.0,4.0,30.0
1,0,18,4,1,1,0,0.5247045,0.5247045,226.43137,NaN,practic_1,NaN,NaN,0.0,4.0,30.0
1,0,18,3,1,1,0,0.60745233,0.60745233,47.784306,NaN,practic_1,NaN,NaN,0.0,4.0,30.0
1,0,18,2,1,1,0,0.9134252,0.9134252,64.58975,NaN,practic_1,NaN,NaN,0.0,4.0,30.0
1,0,18,1,1,1,0,0.76362604,0.76362604,61.194576,NaN,practic_1,NaN,NaN,0.0,4.0,30.0
1,0,18,4,1,1,0,0.5247045,0.5247045,226.43137,NaN,practic_1,NaN,NaN,0.0,4.0,30.0
1,0,18,3,1,1,0,0.60745233,0.60745233,47.784306,NaN,practic_1,NaN,NaN,0.0,4.0,30.0
1,0,18,2,1,1,0,0.9134252,0.9134252,64.58975,NaN,practic_1,NaN,NaN,0.0,4.0,30.0
1,0,18,1,1,1,0,0.76362604,0.76362604,61.194576,NaN,practic_1,NaN,NaN,0.0,4.0,30.0
1,0,18,4,1,1,0,0.5247045,0.5247045,226.43137,NaN,practic_1,NaN,NaN,0.0,4.0,30.0
1,0,18,3,1,1,0,0.60745233,0.60745233,47.784306,NaN,practic_1,NaN,NaN,0.0,4.0,30.0
1,0,18,2,1,1,0,0.9134252,0.9134252,64.58975,NaN,practic_1,NaN,NaN,0.0,4.0,30.0
1,0,18,1,1,1,0,0.76362604,0.76362604,61.194576,NaN,practic_1,NaN,NaN,0.0,4.0,30.0
1,0,18,4,1,1,0,0.5247045,0.5247045,226.43137,NaN,practic_1,NaN,NaN,0.0,4.0,30.0
1,0,18,3,1,1,0,0.60745233,0.60745233,47.784306,NaN,practic_1,NaN,NaN,0.0,4.0,30.0
1,0,18,2,1,1,0,0.9134252,0.9134252,64.58975,NaN,practic_1,NaN,NaN,0.0,4.0,30.0
1,0,18,1,1,1,0,0.76362604,0.76362604,61.194576,NaN,practic_1,NaN,NaN,0.0,4.0,30.0
1,0,18,4,1,1,0,0.5247045,0.5247045,226.43137,NaN,practic_1,NaN,NaN,0.0,4.0,30.0
1,0,18,3,1,1,0,0.60745233,0.60745233,47.784306,NaN,practic_1,NaN,NaN,0.0,4.0,30.0
1,0,18,2,1,1,0,0.9134252,0.9134252,64.58975,NaN,practic_1,NaN,NaN,0.0,4.0,30.0
1,0,18,1,1,1,0,0.76362604,0.76362604,61.194576,NaN,practic_1,NaN,NaN,0.0,4.0,30.0
1,0,18,4,1,1,0,0.5247045,0.5247045,226.43137,NaN,practic_1,NaN,NaN,0.0,4.0,30.0
1,0,18,3,1,1,0,0.60745233,0.60745233,47.784306,NaN,practic_1,NaN,NaN,0.0,4.0,30.0
1,0,18,2,1,1,0,0.9134252,0.9134252,64.58975,NaN,practic_1,NaN,NaN,0.0,4.0,30.0
1,0,18,1,1,1,0,0.76362604,0.76362604,61.194576,NaN,practic_1,NaN,NaN,0.0,4.0,30.0
1,0,18,4,1,1,0,0.5247045,0.5247045,226.43137,NaN,practic_1,NaN,NaN,0.0,4.0,30.0
1,0,18,3,1,1,0,0.60745233,0.60745233,47.784306,NaN,practic_1,NaN,NaN,0.0,4.0,30.0
1,0,18,2,1,1,0,0.9134252,0.9134252,64.58975,NaN,practic_1,NaN,NaN,0.0,4.0,30.0
1,0,18,1,1,1,0,0.76362604,0.76362604,61.194576,NaN,practic_1,NaN,NaN,0.0,4.0,30.0
1,0,17,4,1,1,0,0.5247045,0.5247045,226.43137,NaN,practic_1,NaN,NaN,0.0,4.0,30.0
1,0,17,3,1,1,0,0.60745233,0.60745233,47.784306,NaN,practic_1,NaN,NaN,0.0,4.0,30.0
1,0,17,2,1,1,0,0.9134252,0.9134252,64.58975,NaN,practic_1,NaN,NaN,0.0,4.0,30.0
1,0,17,1,1,1,0,0.76362604,0.76362604,61.194576,NaN,practic_1,NaN,NaN,0.0,4.0,30.0
1,0,17,4,1,1,0,0.5247045,0.5247045,226.43137,NaN,practic_1,NaN,NaN,0.0,4.0,30.0
1,0,17,3,1,1,0,0.60745233,0.60745233,47.784306,NaN,practic_1,NaN,NaN,0.0,4.0,30.0
1,0,17,2,1,1,0,0.9134252,0.9134252,64.58975,NaN,practic_1,NaN,NaN,0.0,4.0,30.0
1,0,17,1,1,1,0,0.76362604,0.76362604,61.194576,NaN,practic_1,NaN,NaN,0.0,4.0,30.0
1,0,17,4,1,1,0,0.5247045,0.5247045,226.43137,NaN,practic_1,NaN,NaN,0.0,4.0,30.0
1,0,17,3,1,1,0,0.60745233,0.60745233,47.784306,NaN,practic_1,NaN,NaN,0.0,4.0,30.0
1,0,17,2,1,1,0,0.9134252,0.9134252,64.58975,NaN,practic_1,NaN,NaN,0.0,4.0,30.0
1,0,17,1,1,1,0,0.76362604,0.76362604,61.194576,NaN,practic_1,NaN,NaN,0.0,4.0,30.0
1,0,17,4,1,1,0,0.5247045,0.5247045,226.43137,NaN,practic_1,NaN,NaN,0.0,4.0,30.0
1,0,17,3,1,1,0,0.60745233,0.60745233,47.784306,NaN,practic_1,NaN,NaN,0.0,4.0,30.0
1,0,17,2,1,1,0,0.9134252,0.9134252,64.58975,NaN,practic_1,NaN,NaN,0.0,4.0,30.0
1,0,17,1,1,1,0,0.76362604,0.76362604,61.194576,NaN,practic_1,NaN,NaN,0.0,4.0,30.0
1,0,17,4,1,1,0,0.5247045,0.5247045,226.43137,NaN,practic_1,NaN,NaN,0.0,4.0,30.0
1,0,17,3,1,1,0,0.60745233,0.60745233,47.784306,NaN,practic_1,NaN,NaN,0.0,4.0,30.0
1,0,17,2,1,1,0,0.9134252,0.9134252,64.58975,NaN,practic_1,NaN,NaN,0.0,4.0,30.0
1,0,17,1,1,1,0,0.76362604,0.76362604,61.194576,NaN,practic_1,NaN,NaN,0.0,4.0,30.0
1,0,17,4,1,1,0,0.5247045,0.5247045,226.43137,NaN,practic_1,NaN,NaN,0.0,4.0,30.0
1,0,17,3,1,1,0,0.60745233,0.60745233,47.784306,NaN,practic_1,NaN,NaN,0.0,4.0,30.0
1,0,17,2,1,1,0,0.9134252,0.9134252,64.58975,NaN,practic_1,NaN,NaN,0.0,4.0,30.0
1,0,17,1,1,1,0,0.76362604,0.76362604,61.194576,NaN,practic_1,NaN,NaN,0.0,4.0,30.0
1,0,17,4,1,1,0,0.5247045,0.5247045,226.43137,NaN,practic_1,NaN,NaN,0.0,4.0,30.0
1,0,17,3,1,1,0,0.60745233,0.60745233,47.784306,NaN,practic_1,NaN,NaN,0.0,4.0,30.0
1,0,17,2,1,1,0,0.9134252,0.9134252,64.58975,NaN,practic_1,NaN,NaN,0.0,4.0,30.0
1,0,17,1,1,1,0,0.76362604,0.76362604,61.194576,NaN,practic_1,NaN,NaN,0.0,4.0,30.0
1,0,17,4,1,1,0,0.5247045,0.5247045,226.43137,NaN,practic_1,NaN,NaN,0.0,4.0,30.0
1,0,17,3,1,1,0,0.60745233,0.60745233,47.784306,NaN,practic_1,NaN,NaN,0.0,4.0,30.0
1,0,17,2,1,1,0,0.9134252,0.9134252,64.58975,NaN,practic_1,NaN,NaN,0.0,4.0,30.0
1,0,17,1,1,1,0,0.76362604,0.76362604,61.194576,NaN,practic_1,NaN,NaN,0.0,4.0,30.0
1,0,17,4,1,1,0,0.5247045,0.5247045,226.43137,NaN,practic_1,NaN,NaN,0.0,4.0,30.0
1,0,17,3,1,1,0,0.60745233,0.60745233,47.784306,NaN,practic_1,NaN,NaN,0.0,4.0,30.0
1,0,17,2,1,1,0,0.9134252,0.9134252,64.58975,NaN,practic_1,NaN,NaN,0.0,4.0,30.0
1,0,17,1,1,1,0,0.76362604,0.76362604,61.194576,NaN,practic_1,NaN,NaN,0.0,4.0,30.0
1,0,17,4,1,1,0,0.5247045,0.5247045,226.43137,NaN,practic_1,NaN,NaN,0.0,4.0,30.0
1,0,17,3,1,1,0,0.60745233,0.60745233,47.784306,NaN,practic_1,NaN,NaN,0.0,4.0,30.0
1,0,17,2,1,1,0,0.9134252,0.9134252,64.58975,NaN,practic_1,NaN,NaN,0.0,4.0,30.0
1,0,17,1,1,1,0,0.76362604,0.76362604,61.194576,NaN,practic_1,NaN,NaN,0.0,4.0,30.0
1,0,16,4,1,1,0,0.5247045,0.5247045,226.43137,NaN,practic_1,NaN,NaN,0.0,4.0,30.0
1,0,16,3,1,1,0,0.60745233,0.60745233,47.784306,NaN,practic_1,NaN,NaN,0.0,4.0,30.0
1,0,16,2,1,1,0,0.9134252,0.9134252,64.58975,NaN,practic_1,NaN,NaN,0.0,4.0,30.0
1,0,16,1,1,1,0,0.76362604,0.76362604,61.194576,NaN,practic_1,NaN,NaN,0.0,4.0,30.0
1,0,16,4,1,1,0,0.5247045,0.5247045,226.43137,NaN,practic_1,NaN,NaN,0.0,4.0,30.0
1,0,16,3,1,1,0,0.60745233,0.60745233,47.784306,NaN,practic_1,NaN,NaN,0.0,4.0,30.0
1,0,16,2,1,1,0,0.9134252,0.9134252,64.58975,NaN,practic_1,NaN,NaN,0.0,4.0,30.0
1,0,16,1,1,1,0,0.76362604,0.76362604,61.194576,NaN,practic_1,NaN,NaN,0.0,4.0,30.0
1,0,16,4,1,1,0,0.5247045,0.5247045,226.43137,NaN,practic_1,NaN,NaN,0.0,4.0,30.0
1,0,16,3,1,1,0,0.60745233,0.60745233,47.784306,NaN,practic_1,NaN,NaN,0.0,4.0,30.0
1,0,16,2,1,1,0,0.9134252,0.9134252,64.58975,NaN,practic_1,NaN,NaN,0.0,4.0,30.0
1,0,16,1,1,1,0,0.76362604,0.76362604,61.194576,NaN,practic_1,NaN,NaN,0.0,4.0,30.0
1,0,16,4,1,1,0,0.5247045,0.5247045,226.43137,NaN,practic_1,NaN,NaN,0.0,4.0,30.0
1,0,16,3,1,1,0,0.60745233,0.60745233,47.784306,NaN,practic_1,NaN,NaN,0.0,4.0,30.0
1,0,16,2,1,1,0,0.9134252,0.9134252,64.58975,NaN,practic_1,NaN,NaN,0.0,4.0,30.0
1,0,16,1,1,1,0,0.76362604,0.76362604,61.194576,NaN,practic_1,NaN,NaN,0.0,4.0,30.0
1,0,16,4,1,1,0,0.5247045,0.5247045,226.43137,NaN,practic_1,NaN,NaN,0.0,4.0,30.0
1,0,16,3,1,1,0,0.60745233,0.60745233,47.784306,NaN,practic_1,NaN,NaN,0.0,4.0,30.0
1,0,16,2,1,1,0,0.9134252,0.9134252,64.58975,NaN,practic_1,NaN,NaN,0.0,4.0,30.0
1,0,16,1,1,1,0,0.76362604,0.76362604,61.194576,NaN,practic_1,NaN,NaN,0.0,4.0,30.0
1,0,16,4,1,1,0,0.5247045,0.5247045,226.43137,NaN,practic_1,NaN,NaN,0.0,4.0,30.0
1,0,16,3,1,1,0,0.60745233,0.60745233,47.784306,NaN,practic_1,NaN,NaN,0.0,4.0,30.0
1,0,16,2,1,1,0,0.9134252,0.9134252,64.58975,NaN,practic_1,NaN,NaN,0.0,4.0,30.0
1,0,16,1,1,1,0,0.76362604,0.76362604,61.194576,NaN,practic_1,NaN,NaN,0.0,4.0,30.0
1,0,16,4,1,1,0,0.5247045,0.5247045,226.43137,NaN,practic_1,NaN,NaN,0.0,4.0,30.0
1,0,16,3,1,1,0,0.60745233,0.60745233,47.784306,NaN,practic_1,NaN,NaN,0.0,4.0,30.0
1,0,16,2,1,1,0,0.9134252,0.9134252,64.58975,NaN,practic_1,NaN,NaN,0.0,4.0,30.0
1,0,16,1,1,1,0,0.76362604,0.76362604,61.194576,NaN,practic_1,NaN,NaN,0.0,4.0,30.0
1,0,16,1,1,1,0,0.76362604,0.76362604,61.194576,NaN,practic_1,NaN,NaN,0.0,4.0,30.0
1,0,16,4,1,1,0,0.5247045,0.5247045,226.43137,NaN,practic_1,NaN,NaN,0.0,4.0,30.0
1,0,16,3,1,1,0,0.60745233,0.60745233,47.784306,NaN,practic_1,NaN,NaN,0.0,4.0,30.0
1,0,16,2,1,1,0,0.9134252,0.9134252,64.58975,NaN,practic_1,NaN,NaN,0.0,4.0,30.0
1,0,16,1,1,1,0,0.76362604,0.76362604,61.194576,NaN,practic_1,NaN,NaN,0.0,4.0,30.0
1,0,16,4,1,1,0,0.5247045,0.5247045,226.43137,NaN,practic_1,NaN,NaN,0.0,4.0,30.0
1,0,16,3,1,1,0,0.60745233,0.60745233,47.784306,NaN,practic_1,NaN,NaN,0.0,4.0,30.0
1,0,16,2,1,1,0,0.9134252,0.9134252,64.58975,NaN,practic_1,NaN,NaN,0.0,4.0,30.0
1,0,16,1,1,1,0,0.76362604,0.76362604,61.194576,NaN,practic_1,NaN,NaN,0.0,4.0,30.0
1,0,16,4,1,1,0,0.5247045,0.5247045,226.43137,NaN,practic_1,NaN,NaN,0.0,4.0,30.0
1,0,16,3,1,1,0,0.60745233,0.60745233,47.784306,NaN,practic_1,NaN,NaN,0.0,4.0,30.0
1,0,16,2,1,1,0,0.9134252,0.9134252,64.58975,NaN,practic_1,NaN,NaN,0.0,4.0,30.0
1,0,15,4,1,1,0,0.5247045,0.5247045,226.43137,NaN,practic_1,NaN,NaN,0.0,4.0,30.0
1,0,15,3,1,1,0,0.60745233,0.60745233,47.784306,NaN,practic_1,NaN,NaN,0.0,4.0,30.0
1,0,15,2,1,1,0,0.9134252,0.9134252,64.58975,NaN,practic_1,NaN,NaN,0.0,4.0,30.0
1,0,15,1,1,1,0,0.76362604,0.76362604,61.194576,NaN,practic_1,NaN,NaN,0.0,4.0,30.0
1,0,15,4,1,1,0,0.5247045,0.5247045,226.43137,NaN,practic_1,NaN,NaN,0.0,4.0,30.0
1,0,15,3,1,1,0,0.60745233,0.60745233,47.784306,NaN,practic_1,NaN,NaN,0.0,4.0,30.0
1,0,15,2,1,1,0,0.9134252,0.9134252,64.58975,NaN,practic_1,NaN,NaN,0.0,4.0,30.0
1,0,15,1,1,1,0,0.76362604,0.76362604,61.194576,NaN,practic_1,NaN,NaN,0.0,4.0,30.0
1,0,15,4,1,1,0,0.5247045,0.5247045,226.43137,NaN,practic_1,NaN,NaN,0.0,4.0,30.0
1,0,15,3,1,1,0,0.60745233,0.60745233,47.784306,NaN,practic_1,NaN,NaN,0.0,4.0,30.0
1,0,15,2,1,1,0,0.9134252,0.9134252,64.58975,NaN,practic_1,NaN,NaN,0.0,4.0,30.0
1,0,15,1,1,1,0,0.76362604,0.76362604,61.194576,NaN,practic_1,NaN,NaN,0.0,4.0,30.0
1,0,15,4,1,1,0,0.5247045,0.5247045,226.43137,NaN,practic_1,NaN,NaN,0.0,4.0,30.0
1,0,15,3,1,1,0,0.60745233,0.60745233,47.784306,NaN,practic_1,NaN,NaN,0.0,4.0,30.0
1,0,15,2,1,1,0,0.9134252,0.9134252,64.58975,NaN,practic_1,NaN,NaN,0.0,4.0,30.0
1,0,15,1,1,1,0,0.76362604,0.76362604,61.194576,NaN,practic_1,NaN,NaN,0.0,4.0,30.0
1,0,15,4,1,1,0,0.5247045,0.5247045,226.43137,NaN,practic_1,NaN,NaN,0.0,4.0,30.0
1,0,15,3,1,1,0,0.60745233,0.60745233,47.784306,NaN,practic_1,NaN,NaN,0.0,4.0,30.0
1,0,15,2,1,1,0,0.9134252,0.9134252,64.58975,NaN,practic_1,NaN,NaN,0.0,4.0,30.0
1,0,15,1,1,1,0,0.76362604,0.76362604,61.194576,NaN,practic_1,NaN,NaN,0.0,4.0,30.0
1,0,15,4,1,1,0,0.5247045,0.5247045,226.43137,NaN,practic_1,NaN,NaN,0.0,4.0,30.0
1,0,15,3,1,1,0,0.60745233,0.60745233,47.784306,NaN,practic_1,NaN,NaN,0.0,4.0,30.0
1,0,15,2,1,1,0,0.9134252,0.9134252,64.58975,NaN,practic_1,NaN,NaN,0.0,4.0,30.0
1,0,15,1,1,1,0,0.76362604,0.76362604,61.194576,NaN,practic_1,NaN,NaN,0.0,4.0,30.0
1,0,15,4,1,1,0,0.5247045,0.5247045,226.43137,NaN,practic_1,NaN,NaN,0.0,4.0,30.0
1,0,15,3,1,1,0,0.60745233,0.60745233,47.784306,NaN,practic_1,NaN,NaN,0.0,4.0,30.0
1,0,15,2,1,1,0,0.9134252,0.9134252,64.58975,NaN,practic_1,NaN,NaN,0.0,4.0,30.0
1,0,15,1,1,1,0,0.76362604,0.76362604,61.194576,NaN,practic_1,NaN,NaN,0.0,4.0,30.0
1,0,15,4,1,1,0,0.5247045,0.5247045,226.43137,NaN,practic_1,NaN,NaN,0.0,4.0,30.0
1,0,15,3,1,1,0,0.60745233,0.60745233,47.784306,NaN,practic_1,NaN,NaN,0.0,4.0,30.0
1,0,15,2,1,1,0,0.9134252,0.9134252,64.58975,NaN,practic_1,NaN,NaN,0.0,4.0,30.0
1,0,15,1,1,1,0,0.76362604,0.76362604,61.194576,NaN,practic_1,NaN,NaN,0.0,4.0,30.0
1,0,15,4,1,1,0,0.5247045,0.5247045,226.43137,NaN,practic_1,NaN,NaN,0.0,4.0,30.0
1,0,15,3,1,1,0,0.60745233,0.60745233,47.784306,NaN,practic_1,NaN,NaN,0.0,4.0,30.0
1,0,15,2,1,1,0,0.9134252,0.9134252,64.58975,NaN,practic_1,NaN,NaN,0.0,4.0,30.0
1,0,15,1,1,1,0,0.76362604,0.76362604,61.194576,NaN,practic_1,NaN,NaN,0.0,4.0,30.0
1,0,15,4,1,1,0,0.5247045,0.5247045,226.43137,NaN,practic_1,NaN,NaN,0.0,4.0,30.0
1,0,15,3,1,1,0,0.60745233,0.60745233,47.784306,NaN,practic_1,NaN,NaN,0.0,4.0,30.0
1,0,15,2,1,1,0,0.9134252,0.9134252,64.58975,NaN,practic_1,NaN,NaN,0.0,4.0,30.0
1,0,15,1,1,1,0,0.76362604,0.76362604,61.194576,NaN,practic_1,NaN,NaN,0.0,4.0,30.0
1,0,14,4,1,1,0,0.5247045,0.5247045,226.43137,NaN,practic_1,NaN,NaN,0.0,4.0,30.0
1,0,14,3,1,1,0,0.60745233,0.60745233,47.784306,NaN,practic_1,NaN,NaN,0.0,4.0,30.0
1,0,14,2,1,1,0,0.9134252,0.9134252,64.58975,NaN,practic_1,NaN,NaN,0.0,4.0,30.0
1,0,14,1,1,1,0,0.76362604,0.76362604,61.194576,NaN,practic_1,NaN,NaN,0.0,4.0,30.0
1,0,14,4,1,1,0,0.5247045,0.5247045,226.43137,NaN,practic_1,NaN,NaN,0.0,4.0,30.0
1,0,14,3,1,1,0,0.60745233,0.60745233,47.784306,NaN,practic_1,NaN,NaN,0.0,4.0,30.0
1,0,14,2,1,1,0,0.9134252,0.9134252,64.58975,NaN,practic_1,NaN,NaN,0.0,4.0,30.0
1,0,14,1,1,1,0,0.76362604,0.76362604,61.194576,NaN,practic_1,NaN,NaN,0.0,4.0,30.0
1,0,14,4,1,1,0,0.5247045,0.5247045,226.43137,NaN,practic_1,NaN,NaN,0.0,4.0,30.0
1,0,14,3,1,1,0,0.60745233,0.60745233,47.784306,NaN,practic_1,NaN,NaN,0.0,4.0,30.0
1,0,14,2,1,1,0,0.9134252,0.9134252,64.58975,NaN,practic_1,NaN,NaN,0.0,4.0,30.0
1,0,14,1,1,1,0,0.76362604,0.76362604,61.194576,NaN,practic_1,NaN,NaN,0.0,4.0,30.0
1,0,14,4,1,1,0,0.5247045,0.5247045,226.43137,NaN,practic_1,NaN,NaN,0.0,4.0,30.0
1,0,14,3,1,1,0,0.60745233,0.60745233,47.784306,NaN,practic_1,NaN,NaN,0.0,4.0,30.0
1,0,14,2,1,1,0,0.9134252,0.9134252,64.58975,NaN,practic_1,NaN,NaN,0.0,4.0,30.0
1,0,14,1,1,1,0,0.76362604,0.76362604,61.194576,NaN,practic_1,NaN,NaN,0.0,4.0,30.0
1,0,14,4,1,1,0,0.5247045,0.5247045,226.43137,NaN,practic_1,NaN,NaN,0.0,4.0,30.0
1,0,14,3,1,1,0,0.60745233,0.60745233,47.784306,NaN,practic_1,NaN,NaN,0.0,4.0,30.0
1,0,14,2,1,1,0,0.9134252,0.9134252,64.58975,NaN,practic_1,NaN,NaN,0.0,4.0,30.0
1,0,14,1,1,1,0,0.76362604,0.76362604,61.194576,NaN,practic_1,NaN,NaN,0.0,4.0,30.0
1,0,14,4,1,1,0,0.5247045,0.5247045,226.43137,NaN,practic_1,NaN,NaN,0.0,4.0,30.0
1,0,14,3,1,1,0,0.60745233,0.60745233,47.784306,NaN,practic_1,NaN,NaN,0.0,4.0,30.0
1,0,14,2,1,1,0,0.9134252,0.9134252,64.58975,NaN,practic_1,NaN,NaN,0.0,4.0,30.0
1,0,14,1,1,1,0,0.76362604,0.76362604,61.194576,NaN,practic_1,NaN,NaN,0.0,4.0,30.0
1,0,14,4,1,1,0,0.5247045,0.5247045,226.43137,NaN,practic_1,NaN,NaN,0.0,4.0,30.0
1,0,14,3,1,1,0,0.60745233,0.60745233,47.784306,NaN,practic_1,NaN,NaN,0.0,4.0,30.0
1,0,14,2,1,1,0,0.9134252,0.9134252,64.58975,NaN,practic_1,NaN,NaN,0.0,4.0,30.0
1,0,14,1,1,1,0,0.76362604,0.76362604,61.194576,NaN,practic_1,NaN,NaN,0.0,4.0,30.0
1,0,14,4,1,1,0,0.5247045,0.5247045,226.43137,NaN,practic_1,NaN,NaN,0.0,4.0,30.0
1,0,14,3,1,1,0,0.60745233,0.60745233,47.784306,NaN,practic_1,NaN,NaN,0.0,4.0,30.0
1,0,14,2,1,1,0,0.9134252,0.9134252,64.58975,NaN,practic_1,NaN,NaN,0.0,4.0,30.0
1,0,14,1,1,1,0,0.76362604,0.76362604,61.194576,NaN,practic_1,NaN,NaN,0.0,4.0,30.0
1,0,14,4,1,1,0,0.5247045,0.5247045,226.43137,NaN,practic_1,NaN,NaN,0.0,4.0,30.0
1,0,14,3,1,1,0,0.60745233,0.60745233,47.784306,NaN,practic_1,NaN,NaN,0.0,4.0,30.0
1,0,14,2,1,1,0,0.9134252,0.9134252,64.58975,NaN,practic_1,NaN,NaN,0.0,4.0,30.0
1,0,14,1,1,1,0,0.76362604,0.76362604,61.194576,NaN,practic_1,NaN,NaN,0.0,4.0,30.0
1,0,14,4,1,1,0,0.5247045,0.5247045,226.43137,NaN,practic_1,NaN,NaN,0.0,4.0,30.0
1,0,14,3,1,1,0,0.60745233,0.60745233,47.784306,NaN,practic_1,NaN,NaN,0.0,4.0,30.0
1,0,14,2,1,1,0,0.9134252,0.9134252,64.58975,NaN,practic_1,NaN,NaN,0.0,4.0,30.0
1,0,14,1,1,1,0,0.76362604,0.76362604,61.194576,NaN,practic_1,NaN,NaN,0.0,4.0,30.0
1,0,13,4,1,1,0,0.5247045,0.5247045,226.43137,NaN,practic_1,NaN,NaN,0.0,4.0,30.0
1,0,13,3,1,1,0,0.60745233,0.60745233,47.784306,NaN,practic_1,NaN,NaN,0.0,4.0,30.0
1,0,13,2,1,1,0,0.9134252,0.9134252,64.58975,NaN,practic_1,NaN,NaN,0.0,4.0,30.0
1,0,13,1,1,1,0,0.76362604,0.76362604,61.194576,NaN,practic_1,NaN,NaN,0.0,4.0,30.0
1,0,13,4,1,1,0,0.5247045,0.5247045,226.43137,NaN,practic_1,NaN,NaN,0.0,4.0,30.0
1,0,13,3,1,1,0,0.60745233,0.60745233,47.784306,NaN,practic_1,NaN,NaN,0.0,4.0,30.0
1,0,13,2,1,1,0,0.9134252,0.9134252,64.58975,NaN,practic_1,NaN,NaN,0.0,4.0,30.0
1,0,13,1,1,1,0,0.76362604,0.76362604,61.194576,NaN,practic_1,NaN,NaN,0.0,4.0,30.0
1,0,13,4,1,1,0,0.5247045,0.5247045,226.43137,NaN,practic_1,NaN,NaN,0.0,4.0,30.0
1,0,13,3,1,1,0,0.60745233,0.60745233,47.784306,NaN,practic_1,NaN,NaN,0.0,4.0,30.0
1,0,13,2,1,1,0,0.9134252,0.9134252,64.58975,NaN,practic_1,NaN,NaN,0.0,4.0,30.0
1,0,13,1,1,1,0,0.76362604,0.76362604,61.194576,NaN,practic_1,NaN,NaN,0.0,4.0,30.0
1,0,13,4,1,1,0,0.5247045,0.5247045,226.43137,NaN,practic_1,NaN,NaN,0.0,4.0,30.0
1,0,13,3,1,1,0,0.60745233,0.60745233,47.784306,NaN,practic_1,NaN,NaN,0.0,4.0,30.0
1,0,13,2,1,1,0,0.9134252,0.9134252,64.58975,NaN,practic_1,NaN,NaN,0.0,4.0,30.0
1,0,13,1,1,1,0,0.76362604,0.76362604,61.194576,NaN,practic_1,NaN,NaN,0.0,4.0,30.0
1,0,13,4,1,1,0,0.5247045,0.5247045,226.43137,NaN,practic_1,NaN,NaN,0.0,4.0,30.0
1,0,13,3,1,1,0,0.60745233,0.60745233,47.784306,NaN,practic_1,NaN,NaN,0.0,4.0,30.0
1,0,13,2,1,1,0,0.9134252,0.9134252,64.58975,NaN,practic_1,NaN,NaN,0.0,4.0,30.0
1,0,13,1,1,1,0,0.76362604,0.76362604,61.194576,NaN,practic_1,NaN,NaN,0.0,4.0,30.0
1,0,13,4,1,1,0,0.5247045,0.5247045,226.43137,NaN,practic_1,NaN,NaN,0.0,4.0,30.0
1,0,13,3,1,1,0,0.60745233,0.60745233,47.784306,NaN,practic_1,NaN,NaN,0.0,4.0,30.0
1,0,13,2,1,1,0,0.9134252,0.9134252,64.58975,NaN,practic_1,NaN,NaN,0.0,4.0,30.0
1,0,13,1,1,1,0,0.76362604,0.76362604,61.194576,NaN,practic_1,NaN,NaN,0.0,4.0,30.0
1,0,13,4,1,1,0,0.5247045,0.5247045,226.43137,NaN,practic_1,NaN,NaN,0.0,4.0,30.0
1,0,13,3,1,1,0,0.60745233,0.60745233,47.784306,NaN,practic_1,NaN,NaN,0.0,4.0,30.0
1,0,13,2,1,1,0,0.9134252,0.9134252,64.58975,NaN,practic_1,NaN,NaN,0.0,4.0,30.0
1,0,13,1,1,1,0,0.76362604,0.76362604,61.194576,NaN,practic_1,NaN,NaN,0.0,4.0,30.0
1,0,13,4,1,1,0,0.5247045,0.5247045,226.43137,NaN,practic_1,NaN,NaN,0.0,4.0,30.0
1,0,13,3,1,1,0,0.60745233,0.60745233,47.784306,NaN,practic_1,NaN,NaN,0.0,4.0,30.0
1,0,13,2,1,1,0,0.9134252,0.9134252,64.58975,NaN,practic_1,NaN,NaN,0.0,4.0,30.0
1,0,13,1,1,1,0,0.76362604,0.76362604,61.194576,NaN,practic_1,NaN,NaN,0.0,4.0,30.0
1,0,13,4,1,1,0,0.5247045,0.5247045,226.43137,NaN,practic_1,NaN,NaN,0.0,4.0,30.0
1,0,13,3,1,1,0,0.60745233,0.60745233,47.784306,NaN,practic_1,NaN,NaN,0.0,4.0,30.0
1,0,13,2,1,1,0,0.9134252,0.9134252,64.58975,NaN,practic_1,NaN,NaN,0.0,4.0,30.0
1,0,13,1,1,1,0,0.76362604,0.76362604,61.194576,NaN,practic_1,NaN,NaN,0.0,4.0,30.0
1,0,13,4,1,1,0,0.5247045,0.5247045,226.43137,NaN,practic_1,NaN,NaN,0.0,4.0,30.0
1,0,13,3,1,1,0,0.60745233,0.60745233,47.784306,NaN,practic_1,NaN,NaN,0.0,4.0,30.0
1,0,13,2,1,1,0,0.9134252,0.9134252,64.58975,NaN,practic_1,NaN,NaN,0.0,4.0,30.0
1,0,13,1,1,1,0,0.76362604,0.76362604,61.194576,NaN,practic_1,NaN,NaN,0.0,4.0,30.0
1,0,12,4,1,1,0,0.5247045,0.5247045,226.43137,NaN,practic_1,NaN,NaN,0.0,4.0,30.0
1,0,12,3,1,1,0,0.60745233,0.60745233,47.784306,NaN,practic_1,NaN,NaN,0.0,4.0,30.0
1,0,12,2,1,1,0,0.9134252,0.9134252,64.58975,NaN,practic_1,NaN,NaN,0.0,4.0,30.0
1,0,12,1,1,1,0,0.76362604,0.76362604,61.194576,NaN,practic_1,NaN,NaN,0.0,4.0,30.0
1,0,12,4,1,1,0,0.5247045,0.5247045,226.43137,NaN,practic_1,NaN,NaN,0.0,4.0,30.0
1,0,12,3,1,1,0,0.60745233,0.60745233,47.784306,NaN,practic_1,NaN,NaN,0.0,4.0,30.0
1,0,12,2,1,1,0,0.9134252,0.9134252,64.58975,NaN,practic_1,NaN,NaN,0.0,4.0,30.0
1,0,12,1,1,1,0,0.76362604,0.76362604,61.194576,NaN,practic_1,NaN,NaN,0.0,4.0,30.0
1,0,12,4,1,1,0,0.5247045,0.5247045,226.43137,NaN,practic_1,NaN,NaN,0.0,4.0,30.0
1,0,12,3,1,1,0,0.60745233,0.60745233,47.784306,NaN,practic_1,NaN,NaN,0.0,4.0,30.0
1,0,12,2,1,1,0,0.9134252,0.9134252,64.58975,NaN,practic_1,NaN,NaN,0.0,4.0,30.0
1,0,12,1,1,1,0,0.76362604,0.76362604,61.194576,NaN,practic_1,NaN,NaN,0.0,4.0,30.0
1,0,12,4,1,1,0,0.5247045,0.5247045,226.43137,NaN,practic_1,NaN,NaN,0.0,4.0,30.0
1,0,12,3,1,1,0,0.60745233,0.60745233,47.784306,NaN,practic_1,NaN,NaN,0.0,4.0,30.0
1,0,12,2,1,1,0,0.9134252,0.9134252,64.58975,NaN,practic_1,NaN,NaN,0.0,4.0,30.0
1,0,12,1,1,1,0,0.76362604,0.76362604,61.194576,NaN,practic_1,NaN,NaN,0.0,4.0,30.0
1,0,12,4,1,1,0,0.5247045,0.5247045,226.43137,NaN,practic_1,NaN,NaN,0.0,4.0,30.0
1,0,12,3,1,1,0,0.60745233,0.60745233,47.784306,NaN,practic_1,NaN,NaN,0.0,4.0,30.0
1,0,12,2,1,1,0,0.9134252,0.9134252,64.58975,NaN,practic_1,NaN,NaN,0.0,4.0,30.0
1,0,12,1,1,1,0,0.76362604,0.76362604,61.194576,NaN,practic_1,NaN,NaN,0.0,4.0,30.0
1,0,12,4,1,1,0,0.5247045,0.5247045,226.43137,NaN,practic_1,NaN,NaN,0.0,4.0,30.0
1,0,12,3,1,1,0,0.60745233,0.60745233,47.784306,NaN,practic_1,NaN,NaN,0.0,4.0,30.0
1,0,12,2,1,1,0,0.9134252,0.9134252,64.58975,NaN,practic_1,NaN,NaN,0.0,4.0,30.0
1,0,12,1,1,1,0,0.76362604,0.76362604,61.194576,NaN,practic_1,NaN,NaN,0.0,4.0,30.0
1,0,12,4,1,1,0,0.5247045,0.5247045,226.43137,NaN,practic_1,NaN,NaN,0.0,4.0,30.0
1,0,12,3,1,1,0,0.60745233,0.60745233,47.784306,NaN,practic_1,NaN,NaN,0.0,4.0,30.0
1,0,12,2,1,1,0,0.9134252,0.9134252,64.58975,NaN,practic_1,NaN,NaN,0.0,4.0,30.0
1,0,12,1,1,1,0,0.76362604,0.76362604,61.194576,NaN,practic_1,NaN,NaN,0.0,4.0,30.0
1,0,12,4,1,1,0,0.5247045,0.5247045,226.43137,NaN,practic_1,NaN,NaN,0.0,4.0,30.0
1,0,12,3,1,1,0,0.60745233,0.60745233,47.784306,NaN,practic_1,NaN,NaN,0.0,4.0,30.0
1,0,12,2,1,1,0,0.9134252,0.9134252,64.58975,NaN,practic_1,NaN,NaN,0.0,4.0,30.0
1,0,12,1,1,1,0,0.76362604,0.76362604,61.194576,NaN,practic_1,NaN,NaN,0.0,4.0,30.0
1,0,12,4,1,1,0,0.5247045,0.5247045,226.43137,NaN,practic_1,NaN,NaN,0.0,4.0,30.0
1,0,12,3,1,1,0,0.60745233,0.60745233,47.784306,NaN,practic_1,NaN,NaN,0.0,4.0,30.0
1,0,12,2,1,1,0,0.9134252,0.9134252,64.58975,NaN,practic_1,NaN,NaN,0.0,4.0,30.0
1,0,12,1,1,1,0,0.76362604,0.76362604,61.194576,NaN,practic_1,NaN,NaN,0.0,4.0,30.0
1,0,12,4,1,1,0,0.5247045,0.5247045,226.43137,NaN,practic_1,NaN,NaN,0.0,4.0,30.0
1,0,12,3,1,1,0,0.60745233,0.60745233,47.784306,NaN,practic_1,NaN,NaN,0.0,4.0,30.0
1,0,12,2,1,1,0,0.9134252,0.9134252,64.58975,NaN,practic_1,NaN,NaN,0.0,4.0,30.0
1,0,12,1,1,1,0,0.76362604,0.76362604,61.194576,NaN,practic_1,NaN,NaN,0.0,4.0,30.0
1,0,11,4,1,1,0,0.5247045,0.5247045,226.43137,NaN,practic_1,NaN,NaN,0.0,4.0,30.0
1,0,11,3,1,1,0,0.60745233,0.60745233,47.784306,NaN,practic_1,NaN,NaN,0.0,4.0,30.0
1,0,11,2,1,1,0,0.9134252,0.9134252,64.58975,NaN,practic_1,NaN,NaN,0.0,4.0,30.0
1,0,11,1,1,1,0,0.76362604,0.76362604,61.194576,NaN,practic_1,NaN,NaN,0.0,4.0,30.0
1,0,11,4,1,1,0,0.5247045,0.5247045,226.43137,NaN,practic_1,NaN,NaN,0.0,4.0,30.0
1,0,11,3,1,1,0,0.60745233,0.60745233,47.784306,NaN,practic_1,NaN,NaN,0.0,4.0,30.0
1,0,11,2,1,1,0,0.9134252,0.9134252,64.58975,NaN,practic_1,NaN,NaN,0.0,4.0,30.0
1,0,11,1,1,1,0,0.76362604,0.76362604,61.194576,NaN,practic_1,NaN,NaN,0.0,4.0,30.0
1,0,11,4,1,1,0,0.5247045,0.5247045,226.43137,NaN,practic_1,NaN,NaN,0.0,4.0,30.0
1,0,11,3,1,1,0,0.60745233,0.60745233,47.784306,NaN,practic_1,NaN,NaN,0.0,4.0,30.0
1,0,11,2,1,1,0,0.9134252,0.9134252,64.58975,NaN,practic_1,NaN,NaN,0.0,4.0,30.0
1,0,11,1,1,1,0,0.76362604,0.76362604,61.194576,NaN,practic_1,NaN,NaN,0.0,4.0,30.0
1,0,11,4,1,1,0,0.5247045,0.5247045,226.43137,NaN,practic_1,NaN,NaN,0.0,4.0,30.0
1,0,11,3,1,1,0,0.60745233,0.60745233,47.784306,NaN,practic_1,NaN,NaN,0.0,4.0,30.0
1,0,11,2,1,1,0,0.9134252,0.9134252,64.58975,NaN,practic_1,NaN,NaN,0.0,4.0,30.0
1,0,11,1,1,1,0,0.76362604,0.76362604,61.194576,NaN,practic_1,NaN,NaN,0.0,4.0,30.0
1,0,11,4,1,1,0,0.5247045,0.5247045,226.43137,NaN,practic_1,NaN,NaN,0.0,4.0,30.0
1,0,11,3,1,1,0,0.60745233,0.60745233,47.784306,NaN,practic_1,NaN,NaN,0.0,4.0,30.0
1,0,11,2,1,1,0,0.9134252,0.9134252,64.58975,NaN,practic_1,NaN,NaN,0.0,4.0,30.0
1,0,11,1,1,1,0,0.76362604,0.76362604,61.194576,NaN,practic_1,NaN,NaN,0.0,4.0,30.0
1,0,11,4,1,1,0,0.5247045,0.5247045,226.43137,NaN,practic_1,NaN,NaN,0.0,4.0,30.0
1,0,11,3,1,1,0,0.60745233,0.60745233,47.784306,NaN,practic_1,NaN,NaN,0.0,4.0,30.0
1,0,11,2,1,1,0,0.9134252,0.9134252,64.58975,NaN,practic_1,NaN,NaN,0.0,4.0,30.0
1,0,11,1,1,1,0,0.76362604,0.76362604,61.194576,NaN,practic_1,NaN,NaN,0.0,4.0,30.0
1,0,11,4,1,1,0,0.5247045,0.5247045,226.43137,NaN,practic_1,NaN,NaN,0.0,4.0,30.0
1,0,11,3,1,1,0,0.60745233,0.60745233,47.784306,NaN,practic_1,NaN,NaN,0.0,4.0,30.0
1,0,11,2,1,1,0,0.9134252,0.9134252,64.58975,NaN,practic_1,NaN,NaN,0.0,4.0,30.0
1,0,11,1,1,1,0,0.76362604,0.76362604,61.194576,NaN,practic_1,NaN,NaN,0.0,4.0,30.0
1,0,11,4,1,1,0,0.5247045,0.5247045,226.43137,NaN,practic_1,NaN,NaN,0.0,4.0,30.0
1,0,11,3,1,1,0,0.60745233,0.60745233,47.784306,NaN,practic_1,NaN,NaN,0.0,4.0,30.0
1,0,11,2,1,1,0,0.9134252,0.9134252,64.58975,NaN,practic_1,NaN,NaN,0.0,4.0,30.0
1,0,11,1,1,1,0,0.76362604,0.76362604,61.194576,NaN,practic_1,NaN,NaN,0.0,4.0,30.0
1,0,11,4,1,1,0,0.5247045,0.5247045,226.43137,NaN,practic_1,NaN,NaN,0.0,4.0,30.0
1,0,11,3,1,1,0,0.60745233,0.60745233,47.784306,NaN,practic_1,NaN,NaN,0.0,4.0,30.0
1,0,11,2,1,1,0,0.9134252,0.9134252,64.58975,NaN,practic_1,NaN,NaN,0.0,4.0,30.0
1,0,11,1,1,1,0,0.76362604,0.76362604,61.194576,NaN,practic_1,NaN,NaN,0.0,4.0,30.0
1,0,11,4,1,1,0,0.5247045,0.5247045,226.43137,NaN,practic_1,NaN,NaN,0.0,4.0,30.0
1,0,11,3,1,1,0,0.60745233,0.60745233,47.784306,NaN,practic_1,NaN,NaN,0.0,4.0,30.0
1,0,11,2,1,1,0,0.9134252,0.9134252,64.58975,NaN,practic_1,NaN,NaN,0.0,4.0,30.0
1,0,11,1,1,1,0,0.76362604,0.76362604,61.194576,NaN,practic_1,NaN,NaN,0.0,4.0,30.0
1,0,10,4,1,1,0,0.5247045,0.5247045,226.43137,NaN,practic_1,NaN,NaN,0.0,4.0,30.0
1,0,10,3,1,1,0,0.60745233,0.60745233,47.784306,NaN,practic_1,NaN,NaN,0.0,4.0,30.0
1,0,10,2,1,1,0,0.9134252,0.9134252,64.58975,NaN,practic_1,NaN,NaN,0.0,4.0,30.0
1,0,10,1,1,1,0,0.76362604,0.76362604,61.194576,NaN,practic_1,NaN,NaN,0.0,4.0,30.0
1,0,10,4,1,1,0,0.5247045,0.5247045,226.43137,NaN,practic_1,NaN,NaN,0.0,4.0,30.0
1,0,10,3,1,1,0,0.60745233,0.60745233,47.784306,NaN,practic_1,NaN,NaN,0.0,4.0,30.0
1,0,10,2,1,1,0,0.9134252,0.9134252,64.58975,NaN,practic_1,NaN,NaN,0.0,4.0,30.0
1,0,10,1,1,1,0,0.76362604,0.76362604,61.194576,NaN,practic_1,NaN,NaN,0.0,4.0,30.0
1,0,10,4,1,1,0,0.5247045,0.5247045,226.43137,NaN,practic_1,NaN,NaN,0.0,4.0,30.0
1,0,10,3,1,1,0,0.60745233,0.60745233,47.784306,NaN,practic_1,NaN,NaN,0.0,4.0,30.0
1,0,10,2,1,1,0,0.9134252,0.9134252,64.58975,NaN,practic_1,NaN,NaN,0.0,4.0,30.0
1,0,10,1,1,1,0,0.76362604,0.76362604,61.194576,NaN,practic_1,NaN,NaN,0.0,4.0,30.0
1,0,10,4,1,1,0,0.5247045,0.5247045,226.43137,NaN,practic_1,NaN,NaN,0.0,4.0,30.0
1,0,10,3,1,1,0,0.60745233,0.60745233,47.784306,NaN,practic_1,NaN,NaN,0.0,4.0,30.0
1,0,10,2,1,1,0,0.9134252,0.9134252,64.58975,NaN,practic_1,NaN,NaN,0.0,4.0,30.0
1,0,10,1,1,1,0,0.76362604,0.76362604,61.194576,NaN,practic_1,NaN,NaN,0.0,4.0,30.0
1,0,10,4,1,1,0,0.5247045,0.5247045,226.43137,NaN,practic_1,NaN,NaN,0.0,4.0,30.0
1,0,10,3,1,1,0,0.60745233,0.60745233,47.784306,NaN,practic_1,NaN,NaN,0.0,4.0,30.0
1,0,10,2,1,1,0,0.9134252,0.9134252,64.58975,NaN,practic_1,NaN,NaN,0.0,4.0,30.0
1,0,10,1,1,1,0,0.76362604,0.76362604,61.194576,NaN,practic_1,NaN,NaN,0.0,4.0,30.0
1,0,10,4,1,1,0,0.5247045,0.5247045,226.43137,NaN,practic_1,NaN,NaN,0.0,4.0,30.0
1,0,10,3,1,1,0,0.60745233,0.60745233,47.784306,NaN,practic_1,NaN,NaN,0.0,4.0,30.0
1,0,10,2,1,1,0,0.9134252,0.9134252,64.58975,NaN,practic_1,NaN,NaN,0.0,4.0,30.0
1,0,10,1,1,1,0,0.76362604,0.76362604,61.194576,NaN,practic_1,NaN,NaN,0.0,4.0,30.0
1,0,10,4,1,1,0,0.5247045,0.5247045,226.43137,NaN,practic_1,NaN,NaN,0.0,4.0,30.0
1,0,10,3,1,1,0,0.60745233,0.60745233,47.784306,NaN,practic_1,NaN,NaN,0.0,4.0,30.0
1,0,10,2,1,1,0,0.9134252,0.9134252,64.58975,NaN,practic_1,NaN,NaN,0.0,4.0,30.0
1,0,10,1,1,1,0,0.76362604,0.76362604,61.194576,NaN,practic_1,NaN,NaN,0.0,4.0,30.0
1,0,10,4,1,1,0,0.5247045,0.5247045,226.43137,NaN,practic_1,NaN,NaN,0.0,4.0,30.0
1,0,10,3,1,1,0,0.60745233,0.60745233,47.784306,NaN,practic_1,NaN,NaN,0.0,4.0,30.0
1,0,10,2,1,1,0,0.9134252,0.9134252,64.58975,NaN,practic_1,NaN,NaN,0.0,4.0,30.0
1,0,10,1,1,1,0,0.76362604,0.76362604,61.194576,NaN,practic_1,NaN,NaN,0.0,4.0,30.0
1,0,10,4,1,1,0,0.5247045,0.5247045,226.43137,NaN,practic_1,NaN,NaN,0.0,4.0,30.0
1,0,10,3,1,1,0,0.60745233,0.60745233,47.784306,NaN,practic_1,NaN,NaN,0.0,4.0,30.0
1,0,10,2,1,1,0,0.9134252,0.9134252,64.58975,NaN,practic_1,NaN,NaN,0.0,4.0,30.0
1,0,10,1,1,1,0,0.76362604,0.76362604,61.194576,NaN,practic_1,NaN,NaN,0.0,4.0,30.0
1,0,10,4,1,1,0,0.5247045,0.5247045,226.43137,NaN,practic_1,NaN,NaN,0.0,4.0,30.0
1,0,10,3,1,1,0,0.60745233,0.60745233,47.784306,NaN,practic_1,NaN,NaN,0.0,4.0,30.0
1,0,10,2,1,1,0,0.9134252,0.9134252,64.58975,NaN,practic_1,NaN,NaN,0.0,4.0,30.0
1,0,10,1,1,1,0,0.76362604,0.76362604,61.194576,NaN,practic_1,NaN,NaN,0.0,4.0,30.0
1,0,9,4,1,1,0,0.5247045,0.5247045,226.43137,NaN,practic_1,NaN,NaN,0.0,4.0,30.0
1,0,9,3,1,1,0,0.60745233,0.60745233,47.784306,NaN,practic_1,NaN,NaN,0.0,4.0,30.0
1,0,9,2,1,1,0,0.9134252,0.9134252,64.58975,NaN,practic_1,NaN,NaN,0.0,4.0,30.0
1,0,9,1,1,1,0,0.76362604,0.76362604,61.194576,NaN,practic_1,NaN,NaN,0.0,4.0,30.0
1,0,9,4,1,1,0,0.5247045,0.5247045,226.43137,NaN,practic_1,NaN,NaN,0.0,4.0,30.0
1,0,9,3,1,1,0,0.60745233,0.60745233,47.784306,NaN,practic_1,NaN,NaN,0.0,4.0,30.0
1,0,9,2,1,1,0,0.9134252,0.9134252,64.58975,NaN,practic_1,NaN,NaN,0.0,4.0,30.0
1,0,9,1,1,1,0,0.76362604,0.76362604,61.194576,NaN,practic_1,NaN,NaN,0.0,4.0,30.0
1,0,9,4,1,1,0,0.5247045,0.5247045,226.43137,NaN,practic_1,NaN,NaN,0.0,4.0,30.0
1,0,9,3,1,1,0,0.60745233,0.60745233,47.784306,NaN,practic_1,NaN,NaN,0.0,4.0,30.0
1,0,9,2,1,1,0,0.9134252,0.9134252,64.58975,NaN,practic_1,NaN,NaN,0.0,4.0,30.0
1,0,9,1,1,1,0,0.76362604,0.76362604,61.194576,NaN,practic_1,NaN,NaN,0.0,4.0,30.0
1,0,9,4,1,1,0,0.5247045,0.5247045,226.43137,NaN,practic_1,NaN,NaN,0.0,4.0,30.0
1,0,9,3,1,1,0,0.60745233,0.60745233,47.784306,NaN,practic_1,NaN,NaN,0.0,4.0,30.0
1,0,9,2,1,1,0,0.9134252,0.9134252,64.58975,NaN,practic_1,NaN,NaN,0.0,4.0,30.0
1,0,9,1,1,1,0,0.76362604,0.76362604,61.194576,NaN,practic_1,NaN,NaN,0.0,4.0,30.0
1,0,9,4,1,1,0,0.5247045,0.5247045,226.43137,NaN,practic_1,NaN,NaN,0.0,4.0,30.0
1,0,9,3,1,1,0,0.60745233,0.60745233,47.784306,NaN,practic_1,NaN,NaN,0.0,4.0,30.0
1,0,9,2,1,1,0,0.9134252,0.9134252,64.58975,NaN,practic_1,NaN,NaN,0.0,4.0,30.0
1,0,9,1,1,1,0,0.76362604,0.76362604,61.194576,NaN,practic_1,NaN,NaN,0.0,4.0,30.0
1,0,9,4,1,1,0,0.5247045,0.5247045,226.43137,NaN,practic_1,NaN,NaN,0.0,4.0,30.0
1,0,9,3,1,1,0,0.60745233,0.60745233,47.784306,NaN,practic_1,NaN,NaN,0.0,4.0,30.0
1,0,9,2,1,1,0,0.9134252,0.9134252,64.58975,NaN,practic_1,NaN,NaN,0.0,4.0,30.0
1,0,9,1,1,1,0,0.76362604,0.76362604,61.194576,NaN,practic_1,NaN,NaN,0.0,4.0,30.0
1,0,9,4,1,1,0,0.5247045,0.5247045,226.43137,NaN,practic_1,NaN,NaN,0.0,4.0,30.0
1,0,9,3,1,1,0,0.60745233,0.60745233,47.784306,NaN,practic_1,NaN,NaN,0.0,4.0,30.0
1,0,9,2,1,1,0,0.9134252,0.9134252,64.58975,NaN,practic_1,NaN,NaN,0.0,4.0,30.0
1,0,9,1,1,1,0,0.76362604,0.76362604,61.194576,NaN,practic_1,NaN,NaN,0.0,4.0,30.0
1,0,9,4,1,1,0,0.5247045,0.5247045,226.43137,NaN,practic_1,NaN,NaN,0.0,4.0,30.0
1,0,9,3,1,1,0,0.60745233,0.60745233,47.784306,NaN,practic_1,NaN,NaN,0.0,4.0,30.0
1,0,9,2,1,1,0,0.9134252,0.9134252,64.58975,NaN,practic_1,NaN,NaN,0.0,4.0,30.0
1,0,9,1,1,1,0,0.76362604,0.76362604,61.194576,NaN,practic_1,NaN,NaN,0.0,4.0,30.0
1,0,9,4,1,1,0,0.5247045,0.5247045,226.43137,NaN,practic_1,NaN,NaN,0.0,4.0,30.0
1,0,9,3,1,1,0,0.60745233,0.60745233,47.784306,NaN,practic_1,NaN,NaN,0.0,4.0,30.0
1,0,9,2,1,1,0,0.9134252,0.9134252,64.58975,NaN,practic_1,NaN,NaN,0.0,4.0,30.0
1,0,9,1,1,1,0,0.76362604,0.76362604,61.194576,NaN,practic_1,NaN,NaN,0.0,4.0,30.0
1,0,9,4,1,1,0,0.5247045,0.5247045,226.43137,NaN,practic_1,NaN,NaN,0.0,4.0,30.0
1,0,9,3,1,1,0,0.60745233,0.60745233,47.784306,NaN,practic_1,NaN,NaN,0.0,4.0,30.0
1,0,9,2,1,1,0,0.9134252,0.9134252,64.58975,NaN,practic_1,NaN,NaN,0.0,4.0,30.0
1,0,9,1,1,1,0,0.76362604,0.76362604,61.194576,NaN,practic_1,NaN,NaN,0.0,4.0,30.0
1,0,8,4,1,1,0,0.5247045,0.5247045,226.43137,NaN,practic_1,NaN,NaN,0.0,4.0,30.0
1,0,8,3,1,1,0,0.60745233,0.60745233,47.784306,NaN,practic_1,NaN,NaN,0.0,4.0,30.0
1,0,8,2,1,1,0,0.9134252,0.9134252,64.58975,NaN,practic_1,NaN,NaN,0.0,4.0,30.0
1,0,8,1,1,1,0,0.76362604,0.76362604,61.194576,NaN,practic_1,NaN,NaN,0.0,4.0,30.0
1,0,8,4,1,1,0,0.5247045,0.5247045,226.43137,NaN,practic_1,NaN,NaN,0.0,4.0,30.0
1,0,8,3,1,1,0,0.60745233,0.60745233,47.784306,NaN,practic_1,NaN,NaN,0.0,4.0,30.0
1,0,8,2,1,1,0,0.9134252,0.9134252,64.58975,NaN,practic_1,NaN,NaN,0.0,4.0,30.0
1,0,8,1,1,1,0,0.76362604,0.76362604,61.194576,NaN,practic_1,NaN,NaN,0.0,4.0,30.0
1,0,8,4,1,1,0,0.5247045,0.5247045,226.43137,NaN,practic_1,NaN,NaN,0.0,4.0,30.0
1,0,8,3,1,1,0,0.60745233,0.60745233,47.784306,NaN,practic_1,NaN,NaN,0.0,4.0,30.0
1,0,8,2,1,1,0,0.9134252,0.9134252,64.58975,NaN,practic_1,NaN,NaN,0.0,4.0,30.0
1,0,8,1,1,1,0,0.76362604,0.76362604,61.194576,NaN,practic_1,NaN,NaN,0.0,4.0,30.0
1,0,8,4,1,1,0,0.5247045,0.5247045,226.43137,NaN,practic_1,NaN,NaN,0.0,4.0,30.0
1,0,8,3,1,1,0,0.60745233,0.60745233,47.784306,NaN,practic_1,NaN,NaN,0.0,4.0,30.0
1,0,8,2,1,1,0,0.9134252,0.9134252,64.58975,NaN,practic_1,NaN,NaN,0.0,4.0,30.0
1,0,8,1,1,1,0,0.76362604,0.76362604,61.194576,NaN,practic_1,NaN,NaN,0.0,4.0,30.0
1,0,8,4,1,1,0,0.5247045,0.5247045,226.43137,NaN,practic_1,NaN,NaN,0.0,4.0,30.0
1,0,8,3,1,1,0,0.60745233,0.60745233,47.784306,NaN,practic_1,NaN,NaN,0.0,4.0,30.0
1,0,8,2,1,1,0,0.9134252,0.9134252,64.58975,NaN,practic_1,NaN,NaN,0.0,4.0,30.0
1,0,8,1,1,1,0,0.76362604,0.76362604,61.194576,NaN,practic_1,NaN,NaN,0.0,4.0,30.0
1,0,8,4,1,1,0,0.5247045,0.5247045,226.43137,NaN,practic_1,NaN,NaN,0.0,4.0,30.0
1,0,8,3,1,1,0,0.60745233,0.60745233,47.784306,NaN,practic_1,NaN,NaN,0.0,4.0,30.0
1,0,8,2,1,1,0,0.9134252,0.9134252,64.58975,NaN,practic_1,NaN,NaN,0.0,4.0,30.0
1,0,8,1,1,1,0,0.76362604,0.76362604,61.194576,NaN,practic_1,NaN,NaN,0.0,4.0,30.0
1,0,8,4,1,1,0,0.5247045,0.5247045,226.43137,NaN,practic_1,NaN,NaN,0.0,4.0,30.0
1,0,8,3,1,1,0,0.60745233,0.60745233,47.784306,NaN,practic_1,NaN,NaN,0.0,4.0,30.0
1,0,8,2,1,1,0,0.9134252,0.9134252,64.58975,NaN,practic_1,NaN,NaN,0.0,4.0,30.0
1,0,8,1,1,1,0,0.76362604,0.76362604,61.194576,NaN,practic_1,NaN,NaN,0.0,4.0,30.0
1,0,8,4,1,1,0,0.5247045,0.5247045,226.43137,NaN,practic_1,NaN,NaN,0.0,4.0,30.0
1,0,8,3,1,1,0,0.60745233,0.60745233,47.784306,NaN,practic_1,NaN,NaN,0.0,4.0,30.0
1,0,8,2,1,1,0,0.9134252,0.9134252,64.58975,NaN,practic_1,NaN,NaN,0.0,4.0,30.0
1,0,8,1,1,1,0,0.76362604,0.76362604,61.194576,NaN,practic_1,NaN,NaN,0.0,4.0,30.0
1,0,8,4,1,1,0,0.5247045,0.5247045,226.43137,NaN,practic_1,NaN,NaN,0.0,4.0,30.0
1,0,8,3,1,1,0,0.60745233,0.60745233,47.784306,NaN,practic_1,NaN,NaN,0.0,4.0,30.0
1,0,8,2,1,1,0,0.9134252,0.9134252,64.58975,NaN,practic_1,NaN,NaN,0.0,4.0,30.0
1,0,8,1,1,1,0,0.76362604,0.76362604,61.194576,NaN,practic_1,NaN,NaN,0.0,4.0,30.0
1,0,8,4,1,1,0,0.5247045,0.5247045,226.43137,NaN,practic_1,NaN,NaN,0.0,4.0,30.0
1,0,8,3,1,1,0,0.60745233,0.60745233,47.784306,NaN,practic_1,NaN,NaN,0.0,4.0,30.0
1,0,8,2,1,1,0,0.9134252,0.9134252,64.58975,NaN,practic_1,NaN,NaN,0.0,4.0,30.0
1,0,8,1,1,1,0,0.76362604,0.76362604,61.194576,NaN,practic_1,NaN,NaN,0.0,4.0,30.0
1,0,7,4,1,1,0,0.5247045,0.5247045,226.43137,NaN,practic_1,NaN,NaN,0.0,4.0,30.0
1,0,7,3,1,1,0,0.60745233,0.60745233,47.784306,NaN,practic_1,NaN,NaN,0.0,4.0,30.0
1,0,7,2,1,1,0,0.9134252,0.9134252,64.58975,NaN,practic_1,NaN,NaN,0.0,4.0,30.0
1,0,7,1,1,1,0,0.76362604,0.76362604,61.194576,NaN,practic_1,NaN,NaN,0.0,4.0,30.0
1,0,7,4,1,1,0,0.5247045,0.5247045,226.43137,NaN,practic_1,NaN,NaN,0.0,4.0,30.0
1,0,7,3,1,1,0,0.60745233,0.60745233,47.784306,NaN,practic_1,NaN,NaN,0.0,4.0,30.0
1,0,7,2,1,1,0,0.9134252,0.9134252,64.58975,NaN,practic_1,NaN,NaN,0.0,4.0,30.0
1,0,7,1,1,1,0,0.76362604,0.76362604,61.194576,NaN,practic_1,NaN,NaN,0.0,4.0,30.0
1,0,7,4,1,1,0,0.5247045,0.5247045,226.43137,NaN,practic_1,NaN,NaN,0.0,4.0,30.0
1,0,7,3,1,1,0,0.60745233,0.60745233,47.784306,NaN,practic_1,NaN,NaN,0.0,4.0,30.0
1,0,7,2,1,1,0,0.9134252,0.9134252,64.58975,NaN,practic_1,NaN,NaN,0.0,4.0,30.0
1,0,7,1,1,1,0,0.76362604,0.76362604,61.194576,NaN,practic_1,NaN,NaN,0.0,4.0,30.0
1,0,7,4,1,1,0,0.5247045,0.5247045,226.43137,NaN,practic_1,NaN,NaN,0.0,4.0,30.0
1,0,7,3,1,1,0,0.60745233,0.60745233,47.784306,NaN,practic_1,NaN,NaN,0.0,4.0,30.0
1,0,7,2,1,1,0,0.9134252,0.9134252,64.58975,NaN,practic_1,NaN,NaN,0.0,4.0,30.0
1,0,7,1,1,1,0,0.76362604,0.76362604,61.194576,NaN,practic_1,NaN,NaN,0.0,4.0,30.0
1,0,7,4,1,1,0,0.5247045,0.5247045,226.43137,NaN,practic_1,NaN,NaN,0.0,4.0,30.0
1,0,7,3,1,1,0,0.60745233,0.60745233,47.784306,NaN,practic_1,NaN,NaN,0.0,4.0,30.0
1,0,7,2,1,1,0,0.9134252,0.9134252,64.58975,NaN,practic_1,NaN,NaN,0.0,4.0,30.0
1,0,7,1,1,1,0,0.76362604,0.76362604,61.194576,NaN,practic_1,NaN,NaN,0.0,4.0,30.0
1,0,7,4,1,1,0,0.5247045,0.5247045,226.43137,NaN,practic_1,NaN,NaN,0.0,4.0,30.0
1,0,7,3,1,1,0,0.60745233,0.60745233,47.784306,NaN,practic_1,NaN,NaN,0.0,4.0,30.0
1,0,7,2,1,1,0,0.9134252,0.9134252,64.58975,NaN,practic_1,NaN,NaN,0.0,4.0,30.0
1,0,7,1,1,1,0,0.76362604,0.76362604,61.194576,NaN,practic_1,NaN,NaN,0.0,4.0,30.0
1,0,7,4,1,1,0,0.5247045,0.5247045,226.43137,NaN,practic_1,NaN,NaN,0.0,4.0,30.0
1,0,7,3,1,1,0,0.60745233,0.60745233,47.784306,NaN,practic_1,NaN,NaN,0.0,4.0,30.0
1,0,7,2,1,1,0,0.9134252,0.9134252,64.58975,NaN,practic_1,NaN,NaN,0.0,4.0,30.0
1,0,7,1,1,1,0,0.76362604,0.76362604,61.194576,NaN,practic_1,NaN,NaN,0.0,4.0,30.0
1,0,7,4,1,1,0,0.5247045,0.5247045,226.43137,NaN,practic_1,NaN,NaN,0.0,4.0,30.0
1,0,7,3,1,1,0,0.60745233,0.60745233,47.784306,NaN,practic_1,NaN,NaN,0.0,4.0,30.0
1,0,7,2,1,1,0,0.9134252,0.9134252,64.58975,NaN,practic_1,NaN,NaN,0.0,4.0,30.0
1,0,7,1,1,1,0,0.76362604,0.76362604,61.194576,NaN,practic_1,NaN,NaN,0.0,4.0,30.0
1,0,7,4,1,1,0,0.5247045,0.5247045,226.43137,NaN,practic_1,NaN,NaN,0.0,4.0,30.0
1,0,7,3,1,1,0,0.60745233,0.60745233,47.784306,NaN,practic_1,NaN,NaN,0.0,4.0,30.0
1,0,7,2,1,1,0,0.9134252,0.9134252,64.58975,NaN,practic_1,NaN,NaN,0.0,4.0,30.0
1,0,7,1,1,1,0,0.76362604,0.76362604,61.194576,NaN,practic_1,NaN,NaN,0.0,4.0,30.0
1,0,7,4,1,1,0,0.5247045,0.5247045,226.43137,NaN,practic_1,NaN,NaN,0.0,4.0,30.0
1,0,7,3,1,1,0,0.60745233,0.60745233,47.784306,NaN,practic_1,NaN,NaN,0.0,4.0,30.0
1,0,7,2,1,1,0,0.9134252,0.9134252,64.58975,NaN,practic_1,NaN,NaN,0.0,4.0,30.0
1,0,7,1,1,1,0,0.76362604,0.76362604,61.194576,NaN,practic_1,NaN,NaN,0.0,4.0,30.0
1,0,6,4,1,1,0,0.5247045,0.5247045,226.43137,NaN,practic_1,NaN,NaN,0.0,4.0,30.0
1,0,6,3,1,1,0,0.60745233,0.60745233,47.784306,NaN,practic_1,NaN,NaN,0.0,4.0,30.0
1,0,6,2,1,1,0,0.9134252,0.9134252,64.58975,NaN,practic_1,NaN,NaN,0.0,4.0,30.0
1,0,6,1,1,1,0,0.76362604,0.76362604,61.194576,NaN,practic_1,NaN,NaN,0.0,4.0,30.0
1,0,6,4,1,1,0,0.5247045,0.5247045,226.43137,NaN,practic_1,NaN,NaN,0.0,4.0,30.0
1,0,6,3,1,1,0,0.60745233,0.60745233,47.784306,NaN,practic_1,NaN,NaN,0.0,4.0,30.0
1,0,6,2,1,1,0,0.9134252,0.9134252,64.58975,NaN,practic_1,NaN,NaN,0.0,4.0,30.0
1,0,6,1,1,1,0,0.76362604,0.76362604,61.194576,NaN,practic_1,NaN,NaN,0.0,4.0,30.0
1,0,6,4,1,1,0,0.5247045,0.5247045,226.43137,NaN,practic_1,NaN,NaN,0.0,4.0,30.0
1,0,6,3,1,1,0,0.60745233,0.60745233,47.784306,NaN,practic_1,NaN,NaN,0.0,4.0,30.0
1,0,6,2,1,1,0,0.9134252,0.9134252,64.58975,NaN,practic_1,NaN,NaN,0.0,4.0,30.0
1,0,6,1,1,1,0,0.76362604,0.76362604,61.194576,NaN,practic_1,NaN,NaN,0.0,4.0,30.0
1,0,6,4,1,1,0,0.5247045,0.5247045,226.43137,NaN,practic_1,NaN,NaN,0.0,4.0,30.0
1,0,6,3,1,1,0,0.60745233,0.60745233,47.784306,NaN,practic_1,NaN,NaN,0.0,4.0,30.0
1,0,6,2,1,1,0,0.9134252,0.9134252,64.58975,NaN,practic_1,NaN,NaN,0.0,4.0,30.0
1,0,6,1,1,1,0,0.76362604,0.76362604,61.194576,NaN,practic_1,NaN,NaN,0.0,4.0,30.0
1,0,6,4,1,1,0,0.5247045,0.5247045,226.43137,NaN,practic_1,NaN,NaN,0.0,4.0,30.0
1,0,6,3,1,1,0,0.60745233,0.60745233,47.784306,NaN,practic_1,NaN,NaN,0.0,4.0,30.0
1,0,6,2,1,1,0,0.9134252,0.9134252,64.58975,NaN,practic_1,NaN,NaN,0.0,4.0,30.0
1,0,6,1,1,1,0,0.76362604,0.76362604,61.194576,NaN,practic_1,NaN,NaN,0.0,4.0,30.0
1,0,6,4,1,1,0,0.5247045,0.5247045,226.43137,NaN,practic_1,NaN,NaN,0.0,4.0,30.0
1,0,6,3,1,1,0,0.60745233,0.60745233,47.784306,NaN,practic_1,NaN,NaN,0.0,4.0,30.0
1,0,6,2,1,1,0,0.9134252,0.9134252,64.58975,NaN,practic_1,NaN,NaN,0.0,4.0,30.0
1,0,6,1,1,1,0,0.76362604,0.76362604,61.194576,NaN,practic_1,NaN,NaN,0.0,4.0,30.0
1,0,6,4,1,1,0,0.5247045,0.5247045,226.43137,NaN,practic_1,NaN,NaN,0.0,4.0,30.0
1,0,6,3,1,1,0,0.60745233,0.60745233,47.784306,NaN,practic_1,NaN,NaN,0.0,4.0,30.0
1,0,6,2,1,1,0,0.9134252,0.9134252,64.58975,NaN,practic_1,NaN,NaN,0.0,4.0,30.0
1,0,6,1,1,1,0,0.76362604,0.76362604,61.194576,NaN,practic_1,NaN,NaN,0.0,4.0,30.0
1,0,6,4,1,1,0,0.5247045,0.5247045,226.43137,NaN,practic_1,NaN,NaN,0.0,4.0,30.0
1,0,6,3,1,1,0,0.60745233,0.60745233,47.784306,NaN,practic_1,NaN,NaN,0.0,4.0,30.0
1,0,6,2,1,1,0,0.9134252,0.9134252,64.58975,NaN,practic_1,NaN,NaN,0.0,4.0,30.0
1,0,6,1,1,1,0,0.76362604,0.76362604,61.194576,NaN,practic_1,NaN,NaN,0.0,4.0,30.0
1,0,6,4,1,1,0,0.5247045,0.5247045,226.43137,NaN,practic_1,NaN,NaN,0.0,4.0,30.0
1,0,6,3,1,1,0,0.60745233,0.60745233,47.784306,NaN,practic_1,NaN,NaN,0.0,4.0,30.0
1,0,6,2,1,1,0,0.9134252,0.9134252,64.58975,NaN,practic_1,NaN,NaN,0.0,4.0,30.0
1,0,6,1,1,1,0,0.76362604,0.76362604,61.194576,NaN,practic_1,NaN,NaN,0.0,4.0,30.0
1,0,6,4,1,1,0,0.5247045,0.5247045,226.43137,NaN,practic_1,NaN,NaN,0.0,4.0,30.0
1,0,6,3,1,1,0,0.60745233,0.60745233,47.784306,NaN,practic_1,NaN,NaN,0.0,4.0,30.0
1,0,6,2,1,1,0,0.9134252,0.9134252,64.58975,NaN,practic_1,NaN,NaN,0.0,4.0,30.0
1,0,6,1,1,1,0,0.76362604,0.76362604,61.194576,NaN,practic_1,NaN,NaN,0.0,4.0,30.0
1,0,5,4,1,1,0,0.5247045,0.5247045,226.43137,NaN,practic_1,NaN,NaN,0.0,4.0,30.0
1,0,5,3,1,1,0,0.60745233,0.60745233,47.784306,NaN,practic_1,NaN,NaN,0.0,4.0,30.0
1,0,5,2,1,1,0,0.9134252,0.9134252,64.58975,NaN,practic_1,NaN,NaN,0.0,4.0,30.0
1,0,5,1,1,1,0,0.76362604,0.76362604,61.194576,NaN,practic_1,NaN,NaN,0.0,4.0,30.0
1,0,5,4,1,1,0,0.5247045,0.5247045,226.43137,NaN,practic_1,NaN,NaN,0.0,4.0,30.0
1,0,5,3,1,1,0,0.60745233,0.60745233,47.784306,NaN,practic_1,NaN,NaN,0.0,4.0,30.0
1,0,5,2,1,1,0,0.9134252,0.9134252,64.58975,NaN,practic_1,NaN,NaN,0.0,4.0,30.0
1,0,5,1,1,1,0,0.76362604,0.76362604,61.194576,NaN,practic_1,NaN,NaN,0.0,4.0,30.0
1,0,5,4,1,1,0,0.5247045,0.5247045,226.43137,NaN,practic_1,NaN,NaN,0.0,4.0,30.0
1,0,5,3,1,1,0,0.60745233,0.60745233,47.784306,NaN,practic_1,NaN,NaN,0.0,4.0,30.0
1,0,5,2,1,1,0,0.9134252,0.9134252,64.58975,NaN,practic_1,NaN,NaN,0.0,4.0,30.0
1,0,5,1,1,1,0,0.76362604,0.76362604,61.194576,NaN,practic_1,NaN,NaN,0.0,4.0,30.0
1,0,5,4,1,1,0,0.5247045,0.5247045,226.43137,NaN,practic_1,NaN,NaN,0.0,4.0,30.0
1,0,5,3,1,1,0,0.60745233,0.60745233,47.784306,NaN,practic_1,NaN,NaN,0.0,4.0,30.0
1,0,5,2,1,1,0,0.9134252,0.9134252,64.58975,NaN,practic_1,NaN,NaN,0.0,4.0,30.0
1,0,5,1,1,1,0,0.76362604,0.76362604,61.194576,NaN,practic_1,NaN,NaN,0.0,4.0,30.0
1,0,5,4,1,1,0,0.5247045,0.5247045,226.43137,NaN,practic_1,NaN,NaN,0.0,4.0,30.0
1,0,5,3,1,1,0,0.60745233,0.60745233,47.784306,NaN,practic_1,NaN,NaN,0.0,4.0,30.0
1,0,5,2,1,1,0,0.9134252,0.9134252,64.58975,NaN,practic_1,NaN,NaN,0.0,4.0,30.0
1,0,5,1,1,1,0,0.76362604,0.76362604,61.194576,NaN,practic_1,NaN,NaN,0.0,4.0,30.0
1,0,5,4,1,1,0,0.5247045,0.5247045,226.43137,NaN,practic_1,NaN,NaN,0.0,4.0,30.0
1,0,5,3,1,1,0,0.60745233,0.60745233,47.784306,NaN,practic_1,NaN,NaN,0.0,4.0,30.0
1,0,5,2,1,1,0,0.9134252,0.9134252,64.58975,NaN,practic_1,NaN,NaN,0.0,4.0,30.0
1,0,5,1,1,1,0,0.76362604,0.76362604,61.194576,NaN,practic_1,NaN,NaN,0.0,4.0,30.0
1,0,5,4,1,1,0,0.5247045,0.5247045,226.43137,NaN,practic_1,NaN,NaN,0.0,4.0,30.0
1,0,5,3,1,1,0,0.60745233,0.60745233,47.784306,NaN,practic_1,NaN,NaN,0.0,4.0,30.0
1,0,5,2,1,1,0,0.9134252,0.9134252,64.58975,NaN,practic_1,NaN,NaN,0.0,4.0,30.0
1,0,5,1,1,1,0,0.76362604,0.76362604,61.194576,NaN,practic_1,NaN,NaN,0.0,4.0,30.0
1,0,5,4,1,1,0,0.5247045,0.5247045,226.43137,NaN,practic_1,NaN,NaN,0.0,4.0,30.0
1,0,5,3,1,1,0,0.60745233,0.60745233,47.784306,NaN,practic_1,NaN,NaN,0.0,4.0,30.0
1,0,5,2,1,1,0,0.9134252,0.9134252,64.58975,NaN,practic_1,NaN,NaN,0.0,4.0,30.0
1,0,5,1,1,1,0,0.76362604,0.76362604,61.194576,NaN,practic_1,NaN,NaN,0.0,4.0,30.0
1,0,5,4,1,1,0,0.5247045,0.5247045,226.43137,NaN,practic_1,NaN,NaN,0.0,4.0,30.0
1,0,5,3,1,1,0,0.60745233,0.60745233,47.784306,NaN,practic_1,NaN,NaN,0.0,4.0,30.0
1,0,5,2,1,1,0,0.9134252,0.9134252,64.58975,NaN,practic_1,NaN,NaN,0.0,4.0,30.0
1,0,5,1,1,1,0,0.76362604,0.76362604,61.194576,NaN,practic_1,NaN,NaN,0.0,4.0,30.0
1,0,5,4,1,1,0,0.5247045,0.5247045,226.43137,NaN,practic_1,NaN,NaN,0.0,4.0,30.0
1,0,5,3,1,1,0,0.60745233,0.60745233,47.784306,NaN,practic_1,NaN,NaN,0.0,4.0,30.0
1,0,5,2,1,1,0,0.9134252,0.9134252,64.58975,NaN,practic_1,NaN,NaN,0.0,4.0,30.0
1,0,5,1,1,1,0,0.76362604,0.76362604,61.194576,NaN,practic_1,NaN,NaN,0.0,4.0,30.0
1,0,4,4,1,1,0,0.5247045,0.5247045,226.43137,NaN,practic_1,NaN,NaN,0.0,4.0,30.0
1,0,4,3,1,1,0,0.60745233,0.60745233,47.784306,NaN,practic_1,NaN,NaN,0.0,4.0,30.0
1,0,4,2,1,1,0,0.9134252,0.9134252,64.58975,NaN,practic_1,NaN,NaN,0.0,4.0,30.0
1,0,4,1,1,1,0,0.76362604,0.76362604,61.194576,NaN,practic_1,NaN,NaN,0.0,4.0,30.0
1,0,4,4,1,1,0,0.5247045,0.5247045,226.43137,NaN,practic_1,NaN,NaN,0.0,4.0,30.0
1,0,4,3,1,1,0,0.60745233,0.60745233,47.784306,NaN,practic_1,NaN,NaN,0.0,4.0,30.0
1,0,4,2,1,1,0,0.9134252,0.9134252,64.58975,NaN,practic_1,NaN,NaN,0.0,4.0,30.0
1,0,4,1,1,1,0,0.76362604,0.76362604,61.194576,NaN,practic_1,NaN,NaN,0.0,4.0,30.0
1,0,4,4,1,1,0,0.5247045,0.5247045,226.43137,NaN,practic_1,NaN,NaN,0.0,4.0,30.0
1,0,4,3,1,1,0,0.60745233,0.60745233,47.784306,NaN,practic_1,NaN,NaN,0.0,4.0,30.0
1,0,4,2,1,1,0,0.9134252,0.9134252,64.58975,NaN,practic_1,NaN,NaN,0.0,4.0,30.0
1,0,4,1,1,1,0,0.76362604,0.76362604,61.194576,NaN,practic_1,NaN,NaN,0.0,4.0,30.0
1,0,4,4,1,1,0,0.5247045,0.5247045,226.43137,NaN,practic_1,NaN,NaN,0.0,4.0,30.0
1,0,4,3,1,1,0,0.60745233,0.60745233,47.784306,NaN,practic_1,NaN,NaN,0.0,4.0,30.0
1,0,4,2,1,1,0,0.9134252,0.9134252,64.58975,NaN,practic_1,NaN,NaN,0.0,4.0,30.0
1,0,4,1,1,1,0,0.76362604,0.76362604,61.194576,NaN,practic_1,NaN,NaN,0.0,4.0,30.0
1,0,4,4,1,1,0,0.5247045,0.5247045,226.43137,NaN,practic_1,NaN,NaN,0.0,4.0,30.0
1,0,4,3,1,1,0,0.60745233,0.60745233,47.784306,NaN,practic_1,NaN,NaN,0.0,4.0,30.0
1,0,4,2,1,1,0,0.9134252,0.9134252,64.58975,NaN,practic_1,NaN,NaN,0.0,4.0,30.0
1,0,4,1,1,1,0,0.76362604,0.76362604,61.194576,NaN,practic_1,NaN,NaN,0.0,4.0,30.0
1,0,4,4,1,1,0,0.5247045,0.5247045,226.43137,NaN,practic_1,NaN,NaN,0.0,4.0,30.0
1,0,4,3,1,1,0,0.60745233,0.60745233,47.784306,NaN,practic_1,NaN,NaN,0.0,4.0,30.0
1,0,4,2,1,1,0,0.9134252,0.9134252,64.58975,NaN,practic_1,NaN,NaN,0.0,4.0,30.0
1,0,4,1,1,1,0,0.76362604,0.76362604,61.194576,NaN,practic_1,NaN,NaN,0.0,4.0,30.0
1,0,4,4,1,1,0,0.5247045,0.5247045,226.43137,NaN,practic_1,NaN,NaN,0.0,4.0,30.0
1,0,4,3,1,1,0,0.60745233,0.60745233,47.784306,NaN,practic_1,NaN,NaN,0.0,4.0,30.0
1,0,4,2,1,1,0,0.9134252,0.9134252,64.58975,NaN,practic_1,NaN,NaN,0.0,4.0,30.0
1,0,4,1,1,1,0,0.76362604,0.76362604,61.194576,NaN,practic_1,NaN,NaN,0.0,4.0,30.0
1,0,4,4,1,1,0,0.5247045,0.5247045,226.43137,NaN,practic_1,NaN,NaN,0.0,4.0,30.0
1,0,4,3,1,1,0,0.60745233,0.60745233,47.784306,NaN,practic_1,NaN,NaN,0.0,4.0,30.0
1,0,4,2,1,1,0,0.9134252,0.9134252,64.58975,NaN,practic_1,NaN,NaN,0.0,4.0,30.0
1,0,4,1,1,1,0,0.76362604,0.76362604,61.194576,NaN,practic_1,NaN,NaN,0.0,4.0,30.0
1,0,4,4,1,1,0,0.5247045,0.5247045,226.43137,NaN,practic_1,NaN,NaN,0.0,4.0,30.0
1,0,4,3,1,1,0,0.60745233,0.60745233,47.784306,NaN,practic_1,NaN,NaN,0.0,4.0,30.0
1,0,4,2,1,1,0,0.9134252,0.9134252,64.58975,NaN,practic_1,NaN,NaN,0.0,4.0,30.0
1,0,4,1,1,1,0,0.76362604,0.76362604,61.194576,NaN,practic_1,NaN,NaN,0.0,4.0,30.0
1,0,4,4,1,1,0,0.5247045,0.5247045,226.43137,NaN,practic_1,NaN,NaN,0.0,4.0,30.0
1,0,4,3,1,1,0,0.60745233,0.60745233,47.784306,NaN,practic_1,NaN,NaN,0.0,4.0,30.0
1,0,4,2,1,1,0,0.9134252,0.9134252,64.58975,NaN,practic_1,NaN,NaN,0.0,4.0,30.0
1,0,4,1,1,1,0,0.76362604,0.76362604,61.194576,NaN,practic_1,NaN,NaN,0.0,4.0,30.0
1,0,3,4,1,1,0,0.5247045,0.5247045,226.43137,NaN,practic_1,NaN,NaN,0.0,4.0,30.0
1,0,3,3,1,1,0,0.60745233,0.60745233,47.784306,NaN,practic_1,NaN,NaN,0.0,4.0,30.0
1,0,3,2,1,1,0,0.9134252,0.9134252,64.58975,NaN,practic_1,NaN,NaN,0.0,4.0,30.0
1,0,3,1,1,1,0,0.76362604,0.76362604,61.194576,NaN,practic_1,NaN,NaN,0.0,4.0,30.0
1,0,3,4,1,1,0,0.5247045,0.5247045,226.43137,NaN,practic_1,NaN,NaN,0.0,4.0,30.0
1,0,3,3,1,1,0,0.60745233,0.60745233,47.784306,NaN,practic_1,NaN,NaN,0.0,4.0,30.0
1,0,3,2,1,1,0,0.9134252,0.9134252,64.58975,NaN,practic_1,NaN,NaN,0.0,4.0,30.0
1,0,3,1,1,1,0,0.76362604,0.76362604,61.194576,NaN,practic_1,NaN,NaN,0.0,4.0,30.0
1,0,3,4,1,1,0,0.5247045,0.5247045,226.43137,NaN,practic_1,NaN,NaN,0.0,4.0,30.0
1,0,3,3,1,1,0,0.60745233,0.60745233,47.784306,NaN,practic_1,NaN,NaN,0.0,4.0,30.0
1,0,3,2,1,1,0,0.9134252,0.9134252,64.58975,NaN,practic_1,NaN,NaN,0.0,4.0,30.0
1,0,3,1,1,1,0,0.76362604,0.76362604,61.194576,NaN,practic_1,NaN,NaN,0.0,4.0,30.0
1,0,3,1,1,1,0,0.76362604,0.76362604,61.194576,NaN,practic_1,NaN,NaN,0.0,4.0,30.0
1,0,3,4,1,1,0,0.5247045,0.5247045,226.43137,NaN,practic_1,NaN,NaN,0.0,4.0,30.0
1,0,3,3,1,1,0,0.60745233,0.60745233,47.784306,NaN,practic_1,NaN,NaN,0.0,4.0,30.0
1,0,3,2,1,1,0,0.9134252,0.9134252,64.58975,NaN,practic_1,NaN,NaN,0.0,4.0,30.0
1,0,3,1,1,1,0,0.76362604,0.76362604,61.194576,NaN,practic_1,NaN,NaN,0.0,4.0,30.0
1,0,3,4,1,1,0,0.5247045,0.5247045,226.43137,NaN,practic_1,NaN,NaN,0.0,4.0,30.0
1,0,3,3,1,1,0,0.60745233,0.60745233,47.784306,NaN,practic_1,NaN,NaN,0.0,4.0,30.0
1,0,3,2,1,1,0,0.9134252,0.9134252,64.58975,NaN,practic_1,NaN,NaN,0.0,4.0,30.0
1,0,3,1,1,1,0,0.76362604,0.76362604,61.194576,NaN,practic_1,NaN,NaN,0.0,4.0,30.0
1,0,3,4,1,1,0,0.5247045,0.5247045,226.43137,NaN,practic_1,NaN,NaN,0.0,4.0,30.0
1,0,3,3,1,1,0,0.60745233,0.60745233,47.784306,NaN,practic_1,NaN,NaN,0.0,4.0,30.0
1,0,3,2,1,1,0,0.9134252,0.9134252,64.58975,NaN,practic_1,NaN,NaN,0.0,4.0,30.0
1,0,3,1,1,1,0,0.76362604,0.76362604,61.194576,NaN,practic_1,NaN,NaN,0.0,4.0,30.0
1,0,3,4,1,1,0,0.5247045,0.5247045,226.43137,NaN,practic_1,NaN,NaN,0.0,4.0,30.0
1,0,3,3,1,1,0,0.60745233,0.60745233,47.784306,NaN,practic_1,NaN,NaN,0.0,4.0,30.0
1,0,3,2,1,1,0,0.9134252,0.9134252,64.58975,NaN,practic_1,NaN,NaN,0.0,4.0,30.0
1,0,3,1,1,1,0,0.76362604,0.76362604,61.194576,NaN,practic_1,NaN,NaN,0.0,4.0,30.0
1,0,3,4,1,1,0,0.5247045,0.5247045,226.43137,NaN,practic_1,NaN,NaN,0.0,4.0,30.0
1,0,3,3,1,1,0,0.60745233,0.60745233,47.784306,NaN,practic_1,NaN,NaN,0.0,4.0,30.0
1,0,3,2,1,1,0,0.9134252,0.9134252,64.58975,NaN,practic_1,NaN,NaN,0.0,4.0,30.0
1,0,3,1,1,1,0,0.76362604,0.76362604,61.194576,NaN,practic_1,NaN,NaN,0.0,4.0,30.0
1,0,3,4,1,1,0,0.5247045,0.5247045,226.43137,NaN,practic_1,NaN,NaN,0.0,4.0,30.0
1,0,3,3,1,1,0,0.60745233,0.60745233,47.784306,NaN,practic_1,NaN,NaN,0.0,4.0,30.0
1,0,3,2,1,1,0,0.9134252,0.9134252,64.58975,NaN,practic_1,NaN,NaN,0.0,4.0,30.0
1,0,3,1,1,1,0,0.76362604,0.76362604,61.194576,NaN,practic_1,NaN,NaN,0.0,4.0,30.0
1,0,3,4,1,1,0,0.5247045,0.5247045,226.43137,NaN,practic_1,NaN,NaN,0.0,4.0,30.0
1,0,3,3,1,1,0,0.60745233,0.60745233,47.784306,NaN,practic_1,NaN,NaN,0.0,4.0,30.0
1,0,3,2,1,1,0,0.9134252,0.9134252,64.58975,NaN,practic_1,NaN,NaN,0.0,4.0,30.0
1,0,2,1,1,1,0,0.76362604,0.76362604,61.194576,NaN,practic_1,NaN,NaN,0.0,4.0,30.0
1,0,2,4,1,1,0,0.5247045,0.5247045,226.43137,NaN,practic_1,NaN,NaN,0.0,4.0,30.0
1,0,2,3,1,1,0,0.60745233,0.60745233,47.784306,NaN,practic_1,NaN,NaN,0.0,4.0,30.0
1,0,2,2,1,1,0,0.9134252,0.9134252,64.58975,NaN,practic_1,NaN,NaN,0.0,4.0,30.0
1,0,2,1,1,1,0,0.76362604,0.76362604,61.194576,NaN,practic_1,NaN,NaN,0.0,4.0,30.0
1,0,2,4,1,1,0,0.5247045,0.5247045,226.43137,NaN,practic_1,NaN,NaN,0.0,4.0,30.0
1,0,2,3,1,1,0,0.60745233,0.60745233,47.784306,NaN,practic_1,NaN,NaN,0.0,4.0,30.0
1,0,2,2,1,1,0,0.9134252,0.9134252,64.58975,NaN,practic_1,NaN,NaN,0.0,4.0,30.0
1,0,2,1,1,1,0,0.76362604,0.76362604,61.194576,NaN,practic_1,NaN,NaN,0.0,4.0,30.0
1,0,2,4,1,1,0,0.5247045,0.5247045,226.43137,NaN,practic_1,NaN,NaN,0.0,4.0,30.0
1,0,2,3,1,1,0,0.60745233,0.60745233,47.784306,NaN,practic_1,NaN,NaN,0.0,4.0,30.0
1,0,2,2,1,1,0,0.9134252,0.9134252,64.58975,NaN,practic_1,NaN,NaN,0.0,4.0,30.0
1,0,2,1,1,1,0,0.76362604,0.76362604,61.194576,NaN,practic_1,NaN,NaN,0.0,4.0,30.0
1,0,2,4,1,1,0,0.5247045,0.5247045,226.43137,NaN,practic_1,NaN,NaN,0.0,4.0,30.0
1,0,2,3,1,1,0,0.60745233,0.60745233,47.784306,NaN,practic_1,NaN,NaN,0.0,4.0,30.0
1,0,2,2,1,1,0,0.9134252,0.9134252,64.58975,NaN,practic_1,NaN,NaN,0.0,4.0,30.0
1,0,2,1,1,1,0,0.76362604,0.76362604,61.194576,NaN,practic_1,NaN,NaN,0.0,4.0,30.0
1,0,2,4,1,1,0,0.5247045,0.5247045,226.43137,NaN,practic_1,NaN,NaN,0.0,4.0,30.0
1,0,2,3,1,1,0,0.60745233,0.60745233,47.784306,NaN,practic_1,NaN,NaN,0.0,4.0,30.0
1,0,2,2,1,1,0,0.9134252,0.9134252,64.58975,NaN,practic_1,NaN,NaN,0.0,4.0,30.0
1,0,2,1,1,1,0,0.76362604,0.76362604,61.194576,NaN,practic_1,NaN,NaN,0.0,4.0,30.0
1,0,2,4,1,1,0,0.5247045,0.5247045,226.43137,NaN,practic_1,NaN,NaN,0.0,4.0,30.0
1,0,2,3,1,1,0,0.60745233,0.60745233,47.784306,NaN,practic_1,NaN,NaN,0.0,4.0,30.0
1,0,2,2,1,1,0,0.9134252,0.9134252,64.58975,NaN,practic_1,NaN,NaN,0.0,4.0,30.0
1,0,2,1,1,1,0,0.76362604,0.76362604,61.194576,NaN,practic_1,NaN,NaN,0.0,4.0,30.0
1,0,2,4,1,1,0,0.5247045,0.5247045,226.43137,NaN,practic_1,NaN,NaN,0.0,4.0,30.0
1,0,2,3,1,1,0,0.60745233,0.60745233,47.784306,NaN,practic_1,NaN,NaN,0.0,4.0,30.0
1,0,2,2,1,1,0,0.9134252,0.9134252,64.58975,NaN,practic_1,NaN,NaN,0.0,4.0,30.0
1,0,2,1,1,1,0,0.76362604,0.76362604,61.194576,NaN,practic_1,NaN,NaN,0.0,4.0,30.0
1,0,2,4,1,1,0,0.5247045,0.5247045,226.43137,NaN,practic_1,NaN,NaN,0.0,4.0,30.0
1,0,2,3,1,1,0,0.60745233,0.60745233,47.784306,NaN,practic_1,NaN,NaN,0.0,4.0,30.0
1,0,2,2,1,1,0,0.9134252,0.9134252,64.58975,NaN,practic_1,NaN,NaN,0.0,4.0,30.0
1,0,2,1,1,1,0,0.76362604,0.76362604,61.194576,NaN,practic_1,NaN,NaN,0.0,4.0,30.0
1,0,2,4,1,1,0,0.5247045,0.5247045,226.43137,NaN,practic_1,NaN,NaN,0.0,4.0,30.0
1,0,2,3,1,1,0,0.60745233,0.60745233,47.784306,NaN,practic_1,NaN,NaN,0.0,4.0,30.0
1,0,2,2,1,1,0,0.9134252,0.9134252,64.58975,NaN,practic_1,NaN,NaN,0.0,4.0,30.0
1,0,2,1,1,1,0,0.76362604,0.76362604,61.194576,NaN,practic_1,NaN,NaN,0.0,4.0,30.0
1,0,2,4,1,1,0,0.5247045,0.5247045,226.43137,NaN,practic_1,NaN,NaN,0.0,4.0,30.0
1,0,2,3,1,1,0,0.60745233,0.60745233,47.784306,NaN,practic_1,NaN,NaN,0.0,4.0,30.0
1,0,2,2,1,1,0,0.9134252,0.9134252,64.58975,NaN,practic_1,NaN,NaN,0.0,4.0,30.0
1,0,1,1,1,1,0,0.76362604,0.76362604,61.194576,NaN,practic_1,NaN,NaN,0.0,4.0,30.0
1,0,1,4,1,1,0,0.5247045,0.5247045,226.43137,NaN,practic_1,NaN,NaN,0.0,4.0,30.0
1,0,1,3,1,1,0,0.60745233,0.60745233,47.784306,NaN,practic_1,NaN,NaN,0.0,4.0,30.0
1,0,1,2,1,1,0,0.9134252,0.9134252,64.58975,NaN,practic_1,NaN,NaN,0.0,4.0,30.0
1,0,1,1,1,1,0,0.76362604,0.76362604,61.194576,NaN,practic_1,NaN,NaN,0.0,4.0,30.0
1,0,1,4,1,1,0,0.5247045,0.5247045,226.43137,NaN,practic_1,NaN,NaN,0.0,4.0,30.0
1,0,1,3,1,1,0,0.60745233,0.60745233,47.784306,NaN,practic_1,NaN,NaN,0.0,4.0,30.0
1,0,1,2,1,1,0,0.9134252,0.9134252,64.58975,NaN,practic_1,NaN,NaN,0.0,4.0,30.0
1,0,1,1,1,1,0,0.76362604,0.76362604,61.194576,NaN,practic_1,NaN,NaN,0.0,4.0,30.0
1,0,1,4,1,1,0,0.5247045,0.5247045,226.43137,NaN,practic_1,NaN,NaN,0.0,4.0,30.0
1,0,1,3,1,1,0,0.60745233,0.60745233,47.784306,NaN,practic_1,NaN,NaN,0.0,4.0,30.0
1,0,1,2,1,1,0,0.9134252,0.9134252,64.58975,NaN,practic_1,NaN,NaN,0.0,4.0,30.0
1,0,1,1,1,1,0,0.76362604,0.76362604,61.194576,NaN,practic_1,NaN,NaN,0.0,4.0,30.0
1,0,1,4,1,1,0,0.5247045,0.5247045,226.43137,NaN,practic_1,NaN,NaN,0.0,4.0,30.0
1,0,1,3,1,1,0,0.60745233,0.60745233,47.784306,NaN,practic_1,NaN,NaN,0.0,4.0,30.0
1,0,1,2,1,1,0,0.9134252,0.9134252,64.58975,NaN,practic_1,NaN,NaN,0.0,4.0,30.0
1,0,1,1,1,1,0,0.76362604,0.76362604,61.194576,NaN,practic_1,NaN,NaN,0.0,4.0,30.0
1,0,1,4,1,1,0,0.5247045,0.5247045,226.43137,NaN,practic_1,NaN,NaN,0.0,4.0,30.0
1,0,1,3,1,1,0,0.60745233,0.60745233,47.784306,NaN,practic_1,NaN,NaN,0.0,4.0,30.0
1,0,1,2,1,1,0,0.9134252,0.9134252,64.58975,NaN,practic_1,NaN,NaN,0.0,4.0,30.0
1,0,1,1,1,1,0,0.76362604,0.76362604,61.194576,NaN,practic_1,NaN,NaN,0.0,4.0,30.0
1,0,1,4,1,1,0,0.5247045,0.5247045,226.43137,NaN,practic_1,NaN,NaN,0.0,4.0,30.0
1,0,1,3,1,1,0,0.60745233,0.60745233,47.784306,NaN,practic_1,NaN,NaN,0.0,4.0,30.0
1,0,1,2,1,1,0,0.9134252,0.9134252,64.58975,NaN,practic_1,NaN,NaN,0.0,4.0,30.0
1,0,1,1,1,1,0,0.76362604,0.76362604,61.194576,NaN,practic_1,NaN,NaN,0.0,4.0,30.0
1,0,1,4,1,1,0,0.5247045,0.5247045,226.43137,NaN,practic_1,NaN,NaN,0.0,4.0,30.0
1,0,1,3,1,1,0,0.60745233,0.60745233,47.784306,NaN,practic_1,NaN,NaN,0.0,4.0,30.0
1,0,1,2,1,1,0,0.9134252,0.9134252,64.58975,NaN,practic_1,NaN,NaN,0.0,4.0,30.0
1,0,1,1,1,1,0,0.76362604,0.76362604,61.194576,NaN,practic_1,NaN,NaN,0.0,4.0,30.0
1,0,1,4,1,1,0,0.5247045,0.5247045,226.43137,NaN,practic_1,NaN,NaN,0.0,4.0,30.0
1,0,1,3,1,1,0,0.60745233,0.60745233,47.784306,NaN,practic_1,NaN,NaN,0.0,4.0,30.0
1,0,1,2,1,1,0,0.9134252,0.9134252,64.58975,NaN,practic_1,NaN,NaN,0.0,4.0,30.0
1,0,1,1,1,1,0,0.76362604,0.76362604,61.194576,NaN,practic_1,NaN,NaN,0.0,4.0,30.0
1,0,1,4,1,1,0,0.5247045,0.5247045,226.43137,NaN,practic_1,NaN,NaN,0.0,4.0,30.0
1,0,1,3,1,1,0,0.60745233,0.60745233,47.784306,NaN,practic_1,NaN,NaN,0.0,4.0,30.0
1,0,1,2,1,1,0,0.9134252,0.9134252,64.58975,NaN,practic_1,NaN,NaN,0.0,4.0,30.0
1,0,1,1,1,1,0,0.76362604,0.76362604,61.194576,NaN,practic_1,NaN,NaN,0.0,4.0,30.0
1,0,1,4,1,1,0,0.5247045,0.5247045,226.43137,NaN,practic_1,NaN,NaN,0.0,4.0,30.0
1,0,1,3,1,1,0,0.60745233,0.60745233,47.784306,NaN,practic_1,NaN,NaN,0.0,4.0,30.0
1,0,1,2,1,1,0,0.9134252,0.9134252,64.58975,NaN,practic_1,NaN,NaN,0.0,4.0,30.0
1,0,0,1,1,1,0,0.76362604,0.76362604,61.194576,NaN,practic_1,NaN,NaN,0.0,4.0,30.0
1,0,0,4,1,1,0,0.5247045,0.5247045,226.43137,NaN,practic_1,NaN,NaN,0.0,4.0,30.0
1,0,0,3,1,1,0,0.60745233,0.60745233,47.784306,NaN,practic_1,NaN,NaN,0.0,4.0,30.0
1,0,0,2,1,1,0,0.9134252,0.9134252,64.58975,NaN,practic_1,NaN,NaN,0.0,4.0,30.0
1,0,0,1,1,1,0,0.76362604,0.76362604,61.194576,NaN,practic_1,NaN,NaN,0.0,4.0,30.0
1,0,0,4,1,1,0,0.5247045,0.5247045,226.43137,NaN,practic_1,NaN,NaN,0.0,4.0,30.0
1,0,0,3,1,1,0,0.60745233,0.60745233,47.784306,NaN,practic_1,NaN,NaN,0.0,4.0,30.0
1,0,0,2,1,1,0,0.9134252,0.9134252,64.58975,NaN,practic_1,NaN,NaN,0.0,4.0,30.0
1,0,0,1,1,1,0,0.76362604,0.76362604,61.194576,NaN,practic_1,NaN,NaN,0.0,4.0,30.0
1,0,0,4,1,1,0,0.5247045,0.5247045,226.43137,NaN,practic_1,NaN,NaN,0.0,4.0,30.0
1,0,0,3,1,1,0,0.60745233,0.60745233,47.784306,NaN,practic_1,NaN,NaN,0.0,4.0,30.0
1,0,0,2,1,1,0,0.9134252,0.9134252,64.58975,NaN,practic_1,NaN,NaN,0.0,4.0,30.0
1,0,0,1,1,1,0,0.76362604,0.76362604,61.194576,NaN,practic_1,NaN,NaN,0.0,4.0,30.0
1,0,0,4,1,1,0,0.5247045,0.5247045,226.43137,NaN,practic_1,NaN,NaN,0.0,4.0,30.0
1,0,0,3,1,1,0,0.60745233,0.60745233,47.784306,NaN,practic_1,NaN,NaN,0.0,4.0,30.0
1,0,0,2,1,1,0,0.9134252,0.9134252,64.58975,NaN,practic_1,NaN,NaN,0.0,4.0,30.0
1,0,0,1,1,1,0,0.76362604,0.76362604,61.194576,NaN,practic_1,NaN,NaN,0.0,4.0,30.0
1,0,0,4,1,1,0,0.5247045,0.5247045,226.43137,NaN,practic_1,NaN,NaN,0.0,4.0,30.0
1,0,0,3,1,1,0,0.60745233,0.60745233,47.784306,NaN,practic_1,NaN,NaN,0.0,4.0,30.0
1,0,0,2,1,1,0,0.9134252,0.9134252,64.58975,NaN,practic_1,NaN,NaN,0.0,4.0,30.0
1,0,0,1,1,1,0,0.76362604,0.76362604,61.194576,NaN,practic_1,NaN,NaN,0.0,4.0,30.0
1,0,0,4,1,1,0,0.5247045,0.5247045,226.43137,NaN,practic_1,NaN,NaN,0.0,4.0,30.0
1,0,0,3,1,1,0,0.60745233,0.60745233,47.784306,NaN,practic_1,NaN,NaN,0.0,4.0,30.0
1,0,0,2,1,1,0,0.9134252,0.9134252,64.58975,NaN,practic_1,NaN,NaN,0.0,4.0,30.0
1,0,0,1,1,1,0,0.76362604,0.76362604,61.194576,NaN,practic_1,NaN,NaN,0.0,4.0,30.0
1,0,0,4,1,1,0,0.5247045,0.5247045,226.43137,NaN,practic_1,NaN,NaN,0.0,4.0,30.0
1,0,0,3,1,1,0,0.60745233,0.60745233,47.784306,NaN,practic_1,NaN,NaN,0.0,4.0,30.0
1,0,0,2,1,1,0,0.9134252,0.9134252,64.58975,NaN,practic_1,NaN,NaN,0.0,4.0,30.0
1,0,0,1,1,1,0,0.76362604,0.76362604,61.194576,NaN,practic_1,NaN,NaN,0.0,4.0,30.0
1,0,0,4,1,1,0,0.5247045,0.5247045,226.43137,NaN,practic_1,NaN,NaN,0.0,4.0,30.0
1,0,0,3,1,1,0,0.60745233,0.60745233,47.784306,NaN,practic_1,NaN,NaN,0.0,4.0,30.0
1,0,0,2,1,1,0,0.9134252,0.9134252,64.58975,NaN,practic_1,NaN,NaN,0.0,4.0,30.0
1,0,0,1,1,1,0,0.76362604,0.76362604,61.194576,NaN,practic_1,NaN,NaN,0.0,4.0,30.0
1,0,0,4,1,1,0,0.5247045,0.5247045,226.43137,NaN,practic_1,NaN,NaN,0.0,4.0,30.0
1,0,0,3,1,1,0,0.60745233,0.60745233,47.784306,NaN,practic_1,NaN,NaN,0.0,4.0,30.0
1,0,0,2,1,1,0,0.9134252,0.9134252,64.58975,NaN,practic_1,NaN,NaN,0.0,4.0,30.0
1,0,0,1,1,1,0,0.76362604,0.76362604,61.194576,NaN,practic_1,NaN,NaN,0.0,4.0,30.0
1,0,0,4,1,1,0,0.5247045,0.5247045,226.43137,NaN,practic_1,NaN,NaN,0.0,4.0,30.0
1,0,0,3,1,1,0,0.60745233,0.60745233,47.784306,NaN,practic_1,NaN,NaN,0.0,4.0,30.0
1,0,0,2,1,1,0,0.9134252,0.9134252,64.58975,NaN,practic_1,NaN,NaN,0.0,4.0,30.0
2,0,29,1,1,1,0,0.5399,0.5399,66.85859,NaN,practic_1,NaN,NaN,0.0,4.0,30.0
2,0,29,4,1,1,0,0.12531418,0.12531418,70.974625,NaN,practic_1,NaN,NaN,0.0,4.0,30.0
2,0,29,3,1,1,0,0.22955894,0.22955894,82.91717,NaN,practic_1,NaN,NaN,0.0,4.0,30.0
2,0,29,2,1,1,0,0.5638519,0.5638519,179.24962,NaN,practic_1,NaN,NaN,0.0,4.0,30.0
2,0,29,4,1,1,0,0.12531418,0.12531418,70.974625,NaN,practic_1,NaN,NaN,0.0,4.0,30.0
2,0,29,3,1,1,0,0.22955894,0.22955894,82.91717,NaN,practic_1,NaN,NaN,0.0,4.0,30.0
2,0,29,2,1,1,0,0.5638519,0.5638519,179.24962,NaN,practic_1,NaN,NaN,0.0,4.0,30.0
2,0,29,1,1,1,0,0.5399,0.5399,66.85859,NaN,practic_1,NaN,NaN,0.0,4.0,30.0
2,0,29,4,1,1,0,0.12531418,0.12531418,70.974625,NaN,practic_1,NaN,NaN,0.0,4.0,30.0
2,0,29,3,1,1,0,0.22955894,0.22955894,82.91717,NaN,practic_1,NaN,NaN,0.0,4.0,30.0
2,0,29,2,1,1,0,0.5638519,0.5638519,179.24962,NaN,practic_1,NaN,NaN,0.0,4.0,30.0
2,0,29,1,1,1,0,0.5399,0.5399,66.85859,NaN,practic_1,NaN,NaN,0.0,4.0,30.0
2,0,29,4,1,1,0,0.12531418,0.12531418,70.974625,NaN,practic_1,NaN,NaN,0.0,4.0,30.0
2,0,29,3,1,1,0,0.22955894,0.22955894,82.91717,NaN,practic_1,NaN,NaN,0.0,4.0,30.0
2,0,29,2,1,1,0,0.5638519,0.5638519,179.24962,NaN,practic_1,NaN,NaN,0.0,4.0,30.0
2,0,29,1,1,1,0,0.5399,0.5399,66.85859,NaN,practic_1,NaN,NaN,0.0,4.0,30.0
2,0,29,4,1,1,0,0.12531418,0.12531418,70.974625,NaN,practic_1,NaN,NaN,0.0,4.0,30.0
2,0,29,3,1,1,0,0.22955894,0.22955894,82.91717,NaN,practic_1,NaN,NaN,0.0,4.0,30.0
2,0,29,2,1,1,0,0.5638519,0.5638519,179.24962,NaN,practic_1,NaN,NaN,0.0,4.0,30.0
2,0,29,1,1,1,0,0.5399,0.5399,66.85859,NaN,practic_1,NaN,NaN,0.0,4.0,30.0
2,0,29,4,1,1,0,0.12531418,0.12531418,70.974625,NaN,practic_1,NaN,NaN,0.0,4.0,30.0
2,0,29,3,1,1,0,0.22955894,0.22955894,82.91717,NaN,practic_1,NaN,NaN,0.0,4.0,30.0
2,0,29,2,1,1,0,0.5638519,0.5638519,179.24962,NaN,practic_1,NaN,NaN,0.0,4.0,30.0
2,0,29,1,1,1,0,0.5399,0.5399,66.85859,NaN,practic_1,NaN,NaN,0.0,4.0,30.0
2,0,29,4,1,1,0,0.12531418,0.12531418,70.974625,NaN,practic_1,NaN,NaN,0.0,4.0,30.0
2,0,29,3,1,1,0,0.22955894,0.22955894,82.91717,NaN,practic_1,NaN,NaN,0.0,4.0,30.0
2,0,29,2,1,1,0,0.5638519,0.5638519,179.24962,NaN,practic_1,NaN,NaN,0.0,4.0,30.0
2,0,29,1,1,1,0,0.5399,0.5399,66.85859,NaN,practic_1,NaN,NaN,0.0,4.0,30.0
2,0,29,4,1,1,0,0.12531418,0.12531418,70.974625,NaN,practic_1,NaN,NaN,0.0,4.0,30.0
2,0,29,3,1,1,0,0.22955894,0.22955894,82.91717,NaN,practic_1,NaN,NaN,0.0,4.0,30.0
2,0,29,2,1,1,0,0.5638519,0.5638519,179.24962,NaN,practic_1,NaN,NaN,0.0,4.0,30.0
2,0,29,1,1,1,0,0.5399,0.5399,66.85859,NaN,practic_1,NaN,NaN,0.0,4.0,30.0
2,0,29,4,1,1,0,0.12531418,0.12531418,70.974625,NaN,practic_1,NaN,NaN,0.0,4.0,30.0
2,0,29,3,1,1,0,0.22955894,0.22955894,82.91717,NaN,practic_1,NaN,NaN,0.0,4.0,30.0
2,0,29,2,1,1,0,0.5638519,0.5638519,179.24962,NaN,practic_1,NaN,NaN,0.0,4.0,30.0
2,0,29,1,1,1,0,0.5399,0.5399,66.85859,NaN,practic_1,NaN,NaN,0.0,4.0,30.0
2,0,29,4,1,1,0,0.12531418,0.12531418,70.974625,NaN,practic_1,NaN,NaN,0.0,4.0,30.0
2,0,29,3,1,1,0,0.22955894,0.22955894,82.91717,NaN,practic_1,NaN,NaN,0.0,4.0,30.0
2,0,29,2,1,1,0,0.5638519,0.5638519,179.24962,NaN,practic_1,NaN,NaN,0.0,4.0,30.0
2,0,29,1,1,1,0,0.5399,0.5399,66.85859,NaN,practic_1,NaN,NaN,0.0,4.0,30.0
2,0,28,4,1,1,0,0.12531418,0.12531418,70.974625,NaN,practic_1,NaN,NaN,0.0,4.0,30.0
2,0,28,3,1,1,0,0.22955894,0.22955894,82.91717,NaN,practic_1,NaN,NaN,0.0,4.0,30.0
