period,subperiod,secondsLeft,subject,population,match,matchID,strategy0,target0,payoff,percentChangePerSecond,name,min,max,subperiods,playersInGroup,length
1,1,0.027,1,1,1,0,0.26625228,0.26625228,178.36623,NaN,practic_1,NaN,NaN,10.0,3.0,30.0
1,1,0.027,3,1,1,0,0.6255789,0.6255789,76.76334,NaN,practic_1,NaN,NaN,10.0,3.0,30.0
1,1,0.027,2,1,1,0,0.650069,0.650069,144.87042,NaN,practic_1,NaN,NaN,10.0,3.0,30.0
1,2,0.024,1,1,1,0,0.26625228,0.26625228,178.36623,NaN,practic_1,NaN,NaN,10.0,3.0,30.0
1,2,0.024,3,1,1,0,0.6255789,0.6255789,76.76334,NaN,practic_1,NaN,NaN,10.0,3.0,30.0
1,2,0.024,2,1,1,0,0.650069,0.650069,144.87042,NaN,practic_1,NaN,NaN,10.0,3.0,30.0
1,3,0.021,1,1,1,0,0.26625228,0.26625228,178.36623,NaN,practic_1,NaN,NaN,10.0,3.0,30.0
1,3,0.021,3,1,1,0,0.6255789,0.6255789,76.76334,NaN,practic_1,NaN,NaN,10.0,3.0,30.0
1,3,0.021,2,1,1,0,0.650069,0.650069,144.87042,NaN,practic_1,NaN,NaN,10.0,3.0,30.0
1,4,0.018,1,1,1,0,0.3825397,0.3825397,201.62372,NaN,practic_1,NaN,NaN,10.0,3.0,30.0
1,4,0.018,3,1,1,0,0.6255789,0.6255789,53.505863,NaN,practic_1,NaN,NaN,10.0,3.0,30.0
1,4,0.018,2,1,1,0,0.650069,0.650069,144.87042,NaN,practic_1,NaN,NaN,10.0,3.0,30.0
1,5,0.015,1,1,1,0,0.3984127,0.3984127,204.79831,NaN,practic_1,NaN,NaN,10.0,3.0,30.0
1,5,0.015,3,1,1,0,0.6255789,0.6255789,50.33126,NaN,practic_1,NaN,NaN,10.0,3.0,30.0
1,5,0.015,2,1,1,0,0.650069,0.650069,144.87042,NaN,practic_1,NaN,NaN,10.0,3.0,30.0
1,6,0.012,1,1,1,0,0.3984127,0.3984127,204.79831,NaN,practic_1,NaN,NaN,10.0,3.0,30.0
1,6,0.012,3,1,1,0,0.6255789,0.6255789,50.33126,NaN,practic_1,NaN,NaN,10.0,3.0,30.0
1,6,0.012,2,1,1,0,0.650069,0.650069,144.87042,NaN,practic_1,NaN,NaN,10.0,3.0,30.0
1,7,0.009,1,1,1,0,0.2936508,0.2936508,183.84593,NaN,practic_1,NaN,NaN,10.0,3.0,30.0
1,7,0.009,3,1,1,0,0.6255789,0.6255789,71.28364,NaN,practic_1,NaN,NaN,10.0,3.0,30.0
1,7,0.009,2,1,1,0,0.650069,0.650069,144.87042,NaN,practic_1,NaN,NaN,10.0,3.0,30.0
1,8,0.006,1,1,1,0,0.30952382,0.30952382,187.02054,NaN,practic_1,NaN,NaN,10.0,3.0,30.0
1,8,0.006,3,1,1,0,0.6255789,0.6255789,68.10904,NaN,practic_1,NaN,NaN,10.0,3.0,30.0
1,8,0.006,2,1,1,0,0.650069,0.650069,144.87042,NaN,practic_1,NaN,NaN,10.0,3.0,30.0
1,9,0.003,1,1,1,0,0.30952382,0.30952382,187.02054,NaN,practic_1,NaN,NaN,10.0,3.0,30.0
1,9,0.003,3,1,1,0,0.6255789,0.6255789,68.10904,NaN,practic_1,NaN,NaN,10.0,3.0,30.0
1,9,0.003,2,1,1,0,0.650069,0.650069,144.87042,NaN,practic_1,NaN,NaN,10.0,3.0,30.0
1,10,0.0,1,1,1,0,0.30952382,0.30952382,187.02054,NaN,practic_1,NaN,NaN,10.0,3.0,30.0
1,10,0.0,3,1,1,0,0.6255789,0.6255789,68.10904,NaN,practic_1,NaN,NaN,10.0,3.0,30.0
1,10,0.0,2,1,1,0,0.650069,0.650069,144.87042,NaN,practic_1,NaN,NaN,10.0,3.0,30.0
1,1,0.027,1,1,1,0,0.6721793,0.6721793,125.23047,NaN,practic_1,NaN,NaN,10.0,3.0,30.0
1,1,0.027,2,1,1,0,0.12235975,0.12235975,158.9078,NaN,practic_1,NaN,NaN,10.0,3.0,30.0
1,1,0.027,3,1,1,0,0.7485121,0.7485121,115.861725,NaN,practic_1,NaN,NaN,10.0,3.0,30.0
1,2,0.024,1,1,1,0,0.6721793,0.6721793,125.23047,NaN,practic_1,NaN,NaN,10.0,3.0,30.0
1,2,0.024,3,1,1,0,0.7485121,0.7485121,115.861725,NaN,practic_1,NaN,NaN,10.0,3.0,30.0
1,2,0.024,2,1,1,0,0.12235975,0.12235975,158.9078,NaN,practic_1,NaN,NaN,10.0,3.0,30.0
1,3,0.021,1,1,1,0,0.6721793,0.6721793,173.81812,NaN,practic_1,NaN,NaN,10.0,3.0,30.0
1,3,0.021,3,1,1,0,0.45873016,0.45873016,109.963905,NaN,practic_1,NaN,NaN,10.0,3.0,30.0
1,3,0.021,2,1,1,0,0.12235975,0.12235975,116.21798,NaN,practic_1,NaN,NaN,10.0,3.0,30.0
1,4,0.018,1,1,1,0,0.6721793,0.6721793,173.81812,NaN,practic_1,NaN,NaN,10.0,3.0,30.0
1,4,0.018,3,1,1,0,0.45873016,0.45873016,109.963905,NaN,practic_1,NaN,NaN,10.0,3.0,30.0
1,4,0.018,2,1,1,0,0.12235975,0.12235975,116.21798,NaN,practic_1,NaN,NaN,10.0,3.0,30.0
1,5,0.015,1,1,1,0,0.6721793,0.6721793,173.81812,NaN,practic_1,NaN,NaN,10.0,3.0,30.0
1,5,0.015,3,1,1,0,0.45873016,0.45873016,109.963905,NaN,practic_1,NaN,NaN,10.0,3.0,30.0
1,5,0.015,2,1,1,0,0.12235975,0.12235975,116.21798,NaN,practic_1,NaN,NaN,10.0,3.0,30.0
1,6,0.012,1,1,1,0,0.6721793,0.6721793,165.24667,NaN,practic_1,NaN,NaN,10.0,3.0,30.0
1,6,0.012,3,1,1,0,0.50158733,0.50158733,109.963905,NaN,practic_1,NaN,NaN,10.0,3.0,30.0
1,6,0.012,2,1,1,0,0.12235975,0.12235975,124.78941,NaN,practic_1,NaN,NaN,10.0,3.0,30.0
1,7,0.009,3,1,1,0,0.4904762,0.4904762,109.963905,NaN,practic_1,NaN,NaN,10.0,3.0,30.0
1,7,0.009,2,1,1,0,0.12235975,0.12235975,122.56719,NaN,practic_1,NaN,NaN,10.0,3.0,30.0
1,7,0.009,1,1,1,0,0.6721793,0.6721793,167.4689,NaN,practic_1,NaN,NaN,10.0,3.0,30.0
1,8,0.006,1,1,1,0,0.6721793,0.6721793,167.4689,NaN,practic_1,NaN,NaN,10.0,3.0,30.0
1,8,0.006,3,1,1,0,0.4904762,0.4904762,109.963905,NaN,practic_1,NaN,NaN,10.0,3.0,30.0
1,8,0.006,2,1,1,0,0.12235975,0.12235975,122.56719,NaN,practic_1,NaN,NaN,10.0,3.0,30.0
1,9,0.003,1,1,1,0,0.6721793,0.6721793,167.4689,NaN,practic_1,NaN,NaN,10.0,3.0,30.0
1,9,0.003,3,1,1,0,0.4904762,0.4904762,109.963905,NaN,practic_1,NaN,NaN,10.0,3.0,30.0
1,9,0.003,2,1,1,0,0.12235975,0.12235975,122.56719,NaN,practic_1,NaN,NaN,10.0,3.0,30.0
1,10,0.0,1,1,1,0,0.6721793,0.6721793,167.4689,NaN,practic_1,NaN,NaN,10.0,3.0,30.0
1,10,0.0,3,1,1,0,0.4904762,0.4904762,109.963905,NaN,practic_1,NaN,NaN,10.0,3.0,30.0
1,10,0.0,2,1,1,0,0.12235975,0.12235975,122.56719,NaN,practic_1,NaN,NaN,10.0,3.0,30.0
1,1,0.027,1,1,1,0,0.6436672,0.6436672,173.26186,NaN,practic_1,NaN,NaN,10.0,3.0,30.0
1,1,0.027,3,1,1,0,0.4900235,0.4900235,84.35777,NaN,practic_1,NaN,NaN,10.0,3.0,30.0
1,1,0.027,2,1,1,0,0.22187835,0.22187835,142.38037,NaN,practic_1,NaN,NaN,10.0,3.0,30.0
1,2,0.024,1,1,1,0,0.6436672,0.6436672,173.26186,NaN,practic_1,NaN,NaN,10.0,3.0,30.0
1,2,0.024,3,1,1,0,0.4900235,0.4900235,84.35777,NaN,practic_1,NaN,NaN,10.0,3.0,30.0
1,2,0.024,2,1,1,0,0.22187835,0.22187835,142.38037,NaN,practic_1,NaN,NaN,10.0,3.0,30.0
1,3,0.021,3,1,1,0,0.4900235,0.4900235,84.35777,NaN,practic_1,NaN,NaN,10.0,3.0,30.0
1,3,0.021,2,1,1,0,0.22187835,0.22187835,142.38037,NaN,practic_1,NaN,NaN,10.0,3.0,30.0
1,3,0.021,1,1,1,0,0.6436672,0.6436672,173.26186,NaN,practic_1,NaN,NaN,10.0,3.0,30.0
1,4,0.018,1,1,1,0,0.57301587,0.57301587,187.39212,NaN,practic_1,NaN,NaN,10.0,3.0,30.0
1,4,0.018,3,1,1,0,0.4900235,0.4900235,70.2275,NaN,practic_1,NaN,NaN,10.0,3.0,30.0
1,4,0.018,2,1,1,0,0.22187835,0.22187835,142.38037,NaN,practic_1,NaN,NaN,10.0,3.0,30.0
1,5,0.015,1,1,1,0,0.61269844,0.61269844,179.45561,NaN,practic_1,NaN,NaN,10.0,3.0,30.0
1,5,0.015,2,1,1,0,0.22187835,0.22187835,142.38037,NaN,practic_1,NaN,NaN,10.0,3.0,30.0
1,5,0.015,3,1,1,0,0.4900235,0.4900235,78.16402,NaN,practic_1,NaN,NaN,10.0,3.0,30.0
1,6,0.012,1,1,1,0,0.61269844,0.61269844,179.45561,NaN,practic_1,NaN,NaN,10.0,3.0,30.0
1,6,0.012,3,1,1,0,0.4900235,0.4900235,78.16402,NaN,practic_1,NaN,NaN,10.0,3.0,30.0
1,6,0.012,2,1,1,0,0.22187835,0.22187835,142.38037,NaN,practic_1,NaN,NaN,10.0,3.0,30.0
1,7,0.009,1,1,1,0,0.5190476,0.5190476,198.18578,NaN,practic_1,NaN,NaN,10.0,3.0,30.0
1,7,0.009,3,1,1,0,0.4900235,0.4900235,59.433853,NaN,practic_1,NaN,NaN,10.0,3.0,30.0
1,7,0.009,2,1,1,0,0.22187835,0.22187835,142.38037,NaN,practic_1,NaN,NaN,10.0,3.0,30.0
