period,subperiod,secondsLeft,subject,population,match,matchID,strategy0,target0,payoff,percentChangePerSecond,name,min,max,subperiods,playersInGroup,length
1,1,0.027,1,1,1,0,0.5906848,0.5906848,134.10364,NaN,practic_1,NaN,NaN,10.0,3.0,30.0
1,1,0.027,3,1,1,0,0.26555634,0.26555634,171.24821,NaN,practic_1,NaN,NaN,10.0,3.0,30.0
1,1,0.027,2,1,1,0,0.9360745,0.9360745,94.64815,NaN,practic_1,NaN,NaN,10.0,3.0,30.0
1,2,0.024,1,1,1,0,0.5906848,0.5906848,134.10364,NaN,practic_1,NaN,NaN,10.0,3.0,30.0
1,2,0.024,3,1,1,0,0.26555634,0.26555634,171.24821,NaN,practic_1,NaN,NaN,10.0,3.0,30.0
1,2,0.024,2,1,1,0,0.9360745,0.9360745,94.64815,NaN,practic_1,NaN,NaN,10.0,3.0,30.0
1,3,0.021,1,1,1,0,0.5906848,0.5906848,134.10364,NaN,practic_1,NaN,NaN,10.0,3.0,30.0
1,3,0.021,3,1,1,0,0.26555634,0.26555634,171.24821,NaN,practic_1,NaN,NaN,10.0,3.0,30.0
1,3,0.021,2,1,1,0,0.9360745,0.9360745,94.64815,NaN,practic_1,NaN,NaN,10.0,3.0,30.0
1,4,0.018,1,1,1,0,0.5906848,0.5906848,134.10364,NaN,practic_1,NaN,NaN,10.0,3.0,30.0
1,4,0.018,3,1,1,0,0.26555634,0.26555634,171.24821,NaN,practic_1,NaN,NaN,10.0,3.0,30.0
1,4,0.018,2,1,1,0,0.9360745,0.9360745,94.64815,NaN,practic_1,NaN,NaN,10.0,3.0,30.0
1,5,0.015,3,1,1,0,0.26555634,0.26555634,171.24821,NaN,practic_1,NaN,NaN,10.0,3.0,30.0
1,5,0.015,2,1,1,0,0.9360745,0.9360745,94.64815,NaN,practic_1,NaN,NaN,10.0,3.0,30.0
1,5,0.015,1,1,1,0,0.5906848,0.5906848,134.10364,NaN,practic_1,NaN,NaN,10.0,3.0,30.0
1,6,0.012,1,1,1,0,0.5906848,0.5906848,134.10364,NaN,practic_1,NaN,NaN,10.0,3.0,30.0
1,6,0.012,3,1,1,0,0.26555634,0.26555634,171.24821,NaN,practic_1,NaN,NaN,10.0,3.0,30.0
1,6,0.012,2,1,1,0,0.9360745,0.9360745,94.64815,NaN,practic_1,NaN,NaN,10.0,3.0,30.0
1,7,0.009,2,1,1,0,0.9360745,0.9360745,94.64815,NaN,practic_1,NaN,NaN,10.0,3.0,30.0
1,7,0.009,3,1,1,0,0.26555634,0.26555634,171.24821,NaN,practic_1,NaN,NaN,10.0,3.0,30.0
1,7,0.009,1,1,1,0,0.5906848,0.5906848,134.10364,NaN,practic_1,NaN,NaN,10.0,3.0,30.0
1,8,0.006,1,1,1,0,0.5906848,0.5906848,134.10364,NaN,practic_1,NaN,NaN,10.0,3.0,30.0
1,8,0.006,3,1,1,0,0.26555634,0.26555634,171.24821,NaN,practic_1,NaN,NaN,10.0,3.0,30.0
1,8,0.006,2,1,1,0,0.9360745,0.9360745,94.64815,NaN,practic_1,NaN,NaN,10.0,3.0,30.0
1,9,0.003,1,1,1,0,0.5906848,0.5906848,134.10364,NaN,practic_1,NaN,NaN,10.0,3.0,30.0
1,9,0.003,3,1,1,0,0.26555634,0.26555634,171.24821,NaN,practic_1,NaN,NaN,10.0,3.0,30.0
1,9,0.003,2,1,1,0,0.9360745,0.9360745,94.64815,NaN,practic_1,NaN,NaN,10.0,3.0,30.0
1,10,0.0,1,1,1,0,0.5906848,0.5906848,134.10364,NaN,practic_1,NaN,NaN,10.0,3.0,30.0
1,10,0.0,3,1,1,0,0.26555634,0.26555634,171.24821,NaN,practic_1,NaN,NaN,10.0,3.0,30.0
1,10,0.0,2,1,1,0,0.9360745,0.9360745,94.64815,NaN,practic_1,NaN,NaN,10.0,3.0,30.0
1,1,0.027,1,1,1,0,0.26002228,0.26002228,239.4177,NaN,practic_1,NaN,NaN,10.0,3.0,30.0
1,1,0.027,3,1,1,0,0.9721969,0.9721969,18.147396,NaN,practic_1,NaN,NaN,10.0,3.0,30.0
1,1,0.027,2,1,1,0,0.93706614,0.93706614,142.43492,NaN,practic_1,NaN,NaN,10.0,3.0,30.0
1,2,0.024,2,1,1,0,0.93706614,0.93706614,142.43492,NaN,practic_1,NaN,NaN,10.0,3.0,30.0
1,2,0.024,3,1,1,0,0.9721969,0.9721969,18.147396,NaN,practic_1,NaN,NaN,10.0,3.0,30.0
1,2,0.024,1,1,1,0,0.26002228,0.26002228,239.4177,NaN,practic_1,NaN,NaN,10.0,3.0,30.0
1,3,0.021,1,1,1,0,0.26002228,0.26002228,239.4177,NaN,practic_1,NaN,NaN,10.0,3.0,30.0
1,3,0.021,3,1,1,0,0.9721969,0.9721969,18.147396,NaN,practic_1,NaN,NaN,10.0,3.0,30.0
1,3,0.021,2,1,1,0,0.93706614,0.93706614,142.43492,NaN,practic_1,NaN,NaN,10.0,3.0,30.0
1,4,0.018,3,1,1,0,0.9721969,0.9721969,18.147396,NaN,practic_1,NaN,NaN,10.0,3.0,30.0
1,4,0.018,2,1,1,0,0.93706614,0.93706614,142.43492,NaN,practic_1,NaN,NaN,10.0,3.0,30.0
1,4,0.018,1,1,1,0,0.26002228,0.26002228,239.4177,NaN,practic_1,NaN,NaN,10.0,3.0,30.0
1,5,0.015,1,1,1,0,0.26002228,0.26002228,239.4177,NaN,practic_1,NaN,NaN,10.0,3.0,30.0
1,5,0.015,3,1,1,0,0.9721969,0.9721969,18.147396,NaN,practic_1,NaN,NaN,10.0,3.0,30.0
1,5,0.015,2,1,1,0,0.93706614,0.93706614,142.43492,NaN,practic_1,NaN,NaN,10.0,3.0,30.0
1,6,0.012,3,1,1,0,0.9721969,0.9721969,18.147396,NaN,practic_1,NaN,NaN,10.0,3.0,30.0
1,6,0.012,2,1,1,0,0.93706614,0.93706614,142.43492,NaN,practic_1,NaN,NaN,10.0,3.0,30.0
1,6,0.012,1,1,1,0,0.26002228,0.26002228,239.4177,NaN,practic_1,NaN,NaN,10.0,3.0,30.0
1,7,0.009,1,1,1,0,0.26002228,0.26002228,239.4177,NaN,practic_1,NaN,NaN,10.0,3.0,30.0
1,7,0.009,3,1,1,0,0.9721969,0.9721969,18.147396,NaN,practic_1,NaN,NaN,10.0,3.0,30.0
1,7,0.009,2,1,1,0,0.93706614,0.93706614,142.43492,NaN,practic_1,NaN,NaN,10.0,3.0,30.0
1,8,0.006,1,1,1,0,0.26002228,0.26002228,239.4177,NaN,practic_1,NaN,NaN,10.0,3.0,30.0
1,8,0.006,3,1,1,0,0.9721969,0.9721969,18.147396,NaN,practic_1,NaN,NaN,10.0,3.0,30.0
1,8,0.006,2,1,1,0,0.93706614,0.93706614,142.43492,NaN,practic_1,NaN,NaN,10.0,3.0,30.0
1,9,0.003,1,1,1,0,0.26002228,0.26002228,239.4177,NaN,practic_1,NaN,NaN,10.0,3.0,30.0
1,9,0.003,3,1,1,0,0.9721969,0.9721969,18.147396,NaN,practic_1,NaN,NaN,10.0,3.0,30.0
1,9,0.003,2,1,1,0,0.93706614,0.93706614,142.43492,NaN,practic_1,NaN,NaN,10.0,3.0,30.0
1,10,0.0,1,1,1,0,0.26002228,0.26002228,239.4177,NaN,practic_1,NaN,NaN,10.0,3.0,30.0
1,10,0.0,3,1,1,0,0.9721969,0.9721969,18.147396,NaN,practic_1,NaN,NaN,10.0,3.0,30.0
1,10,0.0,2,1,1,0,0.93706614,0.93706614,142.43492,NaN,practic_1,NaN,NaN,10.0,3.0,30.0
1,1,0.027,1,1,1,0,0.07065052,0.07065052,75.5302,NaN,practic_1,NaN,NaN,10.0,3.0,30.0
1,1,0.027,2,1,1,0,0.33401725,0.33401725,271.79645,NaN,practic_1,NaN,NaN,10.0,3.0,30.0
1,1,0.027,3,1,1,0,0.30700046,0.30700046,52.673347,NaN,practic_1,NaN,NaN,10.0,3.0,30.0
1,2,0.024,1,1,1,0,0.07065052,0.07065052,75.5302,NaN,practic_1,NaN,NaN,10.0,3.0,30.0
1,2,0.024,3,1,1,0,0.30700046,0.30700046,52.673347,NaN,practic_1,NaN,NaN,10.0,3.0,30.0
1,2,0.024,2,1,1,0,0.33401725,0.33401725,271.79645,NaN,practic_1,NaN,NaN,10.0,3.0,30.0
1,3,0.021,1,1,1,0,0.07065052,0.07065052,75.5302,NaN,practic_1,NaN,NaN,10.0,3.0,30.0
1,3,0.021,3,1,1,0,0.30700046,0.30700046,52.673347,NaN,practic_1,NaN,NaN,10.0,3.0,30.0
1,3,0.021,2,1,1,0,0.33401725,0.33401725,271.79645,NaN,practic_1,NaN,NaN,10.0,3.0,30.0
1,4,0.018,1,1,1,0,0.5095238,0.5095238,231.2918,NaN,practic_1,NaN,NaN,10.0,3.0,30.0
1,4,0.018,3,1,1,0,0.30700046,0.30700046,128.20354,NaN,practic_1,NaN,NaN,10.0,3.0,30.0
1,4,0.018,2,1,1,0,0.33401725,0.33401725,40.50467,NaN,practic_1,NaN,NaN,10.0,3.0,30.0
1,5,0.015,1,1,1,0,0.53809524,0.53809524,225.5775,NaN,practic_1,NaN,NaN,10.0,3.0,30.0
1,5,0.015,3,1,1,0,0.30700046,0.30700046,128.20354,NaN,practic_1,NaN,NaN,10.0,3.0,30.0
1,5,0.015,2,1,1,0,0.33401725,0.33401725,46.218956,NaN,practic_1,NaN,NaN,10.0,3.0,30.0
1,6,0.012,1,1,1,0,0.53809524,0.53809524,225.5775,NaN,practic_1,NaN,NaN,10.0,3.0,30.0
1,6,0.012,3,1,1,0,0.30700046,0.30700046,128.20354,NaN,practic_1,NaN,NaN,10.0,3.0,30.0
1,6,0.012,2,1,1,0,0.33401725,0.33401725,46.218956,NaN,practic_1,NaN,NaN,10.0,3.0,30.0
1,7,0.009,1,1,1,0,0.1904762,0.1904762,99.49533,NaN,practic_1,NaN,NaN,10.0,3.0,30.0
1,7,0.009,3,1,1,0,0.30700046,0.30700046,28.70821,NaN,practic_1,NaN,NaN,10.0,3.0,30.0
1,7,0.009,2,1,1,0,0.33401725,0.33401725,271.79645,NaN,practic_1,NaN,NaN,10.0,3.0,30.0
1,8,0.006,3,1,1,0,0.30700046,0.30700046,28.70821,NaN,practic_1,NaN,NaN,10.0,3.0,30.0
1,8,0.006,2,1,1,0,0.33401725,0.33401725,271.79645,NaN,practic_1,NaN,NaN,10.0,3.0,30.0
1,8,0.006,1,1,1,0,0.1904762,0.1904762,99.49533,NaN,practic_1,NaN,NaN,10.0,3.0,30.0
1,9,0.003,1,1,1,0,0.1904762,0.1904762,99.49533,NaN,practic_1,NaN,NaN,10.0,3.0,30.0
1,9,0.003,3,1,1,0,0.30700046,0.30700046,28.70821,NaN,practic_1,NaN,NaN,10.0,3.0,30.0
1,9,0.003,2,1,1,0,0.33401725,0.33401725,271.79645,NaN,practic_1,NaN,NaN,10.0,3.0,30.0
1,10,0.0,1,1,1,0,0.5968254,0.5968254,213.83147,NaN,practic_1,NaN,NaN,10.0,3.0,30.0
1,10,0.0,3,1,1,0,0.30700046,0.30700046,128.20354,NaN,practic_1,NaN,NaN,10.0,3.0,30.0
1,10,0.0,2,1,1,0,0.33401725,0.33401725,57.964993,NaN,practic_1,NaN,NaN,10.0,3.0,30.0
1,1,0.027,1,1,1,0,0.7610076,0.7610076,144.20381,NaN,practic_1,NaN,NaN,10.0,3.0,30.0
1,1,0.027,2,1,1,0,0.8470251,0.8470251,78.39346,NaN,practic_1,NaN,NaN,10.0,3.0,30.0
1,1,0.027,3,1,1,0,0.126006,0.126006,177.40273,NaN,practic_1,NaN,NaN,10.0,3.0,30.0
1,2,0.024,1,1,1,0,0.7610076,0.7610076,144.20381,NaN,practic_1,NaN,NaN,10.0,3.0,30.0
1,2,0.024,3,1,1,0,0.126006,0.126006,177.40273,NaN,practic_1,NaN,NaN,10.0,3.0,30.0
1,2,0.024,2,1,1,0,0.8470251,0.8470251,78.39346,NaN,practic_1,NaN,NaN,10.0,3.0,30.0
1,3,0.021,1,1,1,0,0.7610076,0.7610076,79.24629,NaN,practic_1,NaN,NaN,10.0,3.0,30.0
1,3,0.021,3,1,1,0,0.45079365,0.45079365,242.36026,NaN,practic_1,NaN,NaN,10.0,3.0,30.0
1,3,0.021,2,1,1,0,0.8470251,0.8470251,78.39346,NaN,practic_1,NaN,NaN,10.0,3.0,30.0
1,4,0.018,1,1,1,0,0.7610076,0.7610076,79.24629,NaN,practic_1,NaN,NaN,10.0,3.0,30.0
1,4,0.018,3,1,1,0,0.45079365,0.45079365,242.36026,NaN,practic_1,NaN,NaN,10.0,3.0,30.0
1,4,0.018,2,1,1,0,0.8470251,0.8470251,78.39346,NaN,practic_1,NaN,NaN,10.0,3.0,30.0
1,5,0.015,1,1,1,0,0.7610076,0.7610076,79.24629,NaN,practic_1,NaN,NaN,10.0,3.0,30.0
1,5,0.015,3,1,1,0,0.45079365,0.45079365,242.36026,NaN,practic_1,NaN,NaN,10.0,3.0,30.0
1,5,0.015,2,1,1,0,0.8470251,0.8470251,78.39346,NaN,practic_1,NaN,NaN,10.0,3.0,30.0
1,6,0.012,1,1,1,0,0.7610076,0.7610076,119.56374,NaN,practic_1,NaN,NaN,10.0,3.0,30.0
1,6,0.012,3,1,1,0,0.24920635,0.24920635,202.0428,NaN,practic_1,NaN,NaN,10.0,3.0,30.0
1,6,0.012,2,1,1,0,0.8470251,0.8470251,78.39346,NaN,practic_1,NaN,NaN,10.0,3.0,30.0
1,7,0.009,1,1,1,0,0.7610076,0.7610076,119.56374,NaN,practic_1,NaN,NaN,10.0,3.0,30.0
1,7,0.009,3,1,1,0,0.24920635,0.24920635,202.0428,NaN,practic_1,NaN,NaN,10.0,3.0,30.0
1,7,0.009,2,1,1,0,0.8470251,0.8470251,78.39346,NaN,practic_1,NaN,NaN,10.0,3.0,30.0
1,8,0.006,1,1,1,0,0.7610076,0.7610076,119.56374,NaN,practic_1,NaN,NaN,10.0,3.0,30.0
1,8,0.006,3,1,1,0,0.24920635,0.24920635,202.0428,NaN,practic_1,NaN,NaN,10.0,3.0,30.0
1,8,0.006,2,1,1,0,0.8470251,0.8470251,78.39346,NaN,practic_1,NaN,NaN,10.0,3.0,30.0
1,9,0.003,1,1,1,0,0.7610076,0.7610076,74.80184,NaN,practic_1,NaN,NaN,10.0,3.0,30.0
1,9,0.003,3,1,1,0,0.47301587,0.47301587,246.80469,NaN,practic_1,NaN,NaN,10.0,3.0,30.0
1,9,0.003,2,1,1,0,0.8470251,0.8470251,78.39346,NaN,practic_1,NaN,NaN,10.0,3.0,30.0
1,10,0.0,1,1,1,0,0.7610076,0.7610076,74.80184,NaN,practic_1,NaN,NaN,10.0,3.0,30.0
1,10,0.0,3,1,1,0,0.47301587,0.47301587,246.80469,NaN,practic_1,NaN,NaN,10.0,3.0,30.0
1,10,0.0,2,1,1,0,0.8470251,0.8470251,78.39346,NaN,practic_1,NaN,NaN,10.0,3.0,30.0
