period,subperiod,secondsLeft,subject,population,match,matchID,strategy0,target0,payoff,percentChangePerSecond,name,min,max,subperiods,playersInGroup,length
1,0,29,1,1,1,0,0.96767163,0.96767163,58.53653,NaN,practic_1,NaN,NaN,0.0,4.0,30.0
1,0,29,4,1,1,0,0.3058101,0.3058101,137.77924,NaN,practic_1,NaN,NaN,0.0,4.0,30.0
1,0,29,3,1,1,0,0.05074954,0.05074954,71.31193,NaN,practic_1,NaN,NaN,0.0,4.0,30.0
1,0,29,2,1,1,0,0.7396457,0.7396457,132.37231,NaN,practic_1,NaN,NaN,0.0,4.0,30.0
1,0,29,1,1,1,0,0.96767163,0.96767163,58.53653,NaN,practic_1,NaN,NaN,0.0,4.0,30.0
1,0,29,4,1,1,0,0.3058101,0.3058101,137.77924,NaN,practic_1,NaN,NaN,0.0,4.0,30.0
1,0,29,3,1,1,0,0.05074954,0.05074954,71.31193,NaN,practic_1,NaN,NaN,0.0,4.0,30.0
1,0,29,2,1,1,0,0.7396457,0.7396457,132.37231,NaN,practic_1,NaN,NaN,0.0,4.0,30.0
1,0,29,4,1,1,0,0.3058101,0.3058101,298.83798,NaN,practic_1,NaN,NaN,0.0,4.0,30.0
1,0,29,3,1,1,0,0.2,0.2,33.720673,NaN,practic_1,NaN,NaN,0.0,4.0,30.0
1,0,29,2,1,1,0,0.2,0.2,33.720673,NaN,practic_1,NaN,NaN,0.0,4.0,30.0
1,0,29,1,1,1,0,0.2,0.2,33.720673,NaN,practic_1,NaN,NaN,0.0,4.0,30.0
1,0,29,4,1,1,0,0.3058101,0.3058101,278.83795,NaN,practic_1,NaN,NaN,0.0,4.0,30.0
1,0,29,3,1,1,0,0.3,0.3,40.38734,NaN,practic_1,NaN,NaN,0.0,4.0,30.0
1,0,29,2,1,1,0,0.3,0.3,40.38734,NaN,practic_1,NaN,NaN,0.0,4.0,30.0
1,0,29,1,1,1,0,0.3,0.3,40.38734,NaN,practic_1,NaN,NaN,0.0,4.0,30.0
1,0,29,4,1,1,0,0.3058101,0.3058101,141.16202,NaN,practic_1,NaN,NaN,0.0,4.0,30.0
1,0,29,3,1,1,0,0.4,0.4,86.27933,NaN,practic_1,NaN,NaN,0.0,4.0,30.0
1,0,29,2,1,1,0,0.4,0.4,86.27933,NaN,practic_1,NaN,NaN,0.0,4.0,30.0
1,0,29,1,1,1,0,0.4,0.4,86.27933,NaN,practic_1,NaN,NaN,0.0,4.0,30.0
1,0,29,4,1,1,0,0.3058101,0.3058101,318.83798,NaN,practic_1,NaN,NaN,0.0,4.0,30.0
1,0,29,3,1,1,0,0.1,0.1,27.054008,NaN,practic_1,NaN,NaN,0.0,4.0,30.0
1,0,29,2,1,1,0,0.1,0.1,27.054008,NaN,practic_1,NaN,NaN,0.0,4.0,30.0
1,0,29,1,1,1,0,0.1,0.1,27.054008,NaN,practic_1,NaN,NaN,0.0,4.0,30.0
1,0,29,4,1,1,0,0.3058101,0.3058101,298.83798,NaN,practic_1,NaN,NaN,0.0,4.0,30.0
1,0,29,3,1,1,0,0.2,0.2,33.720673,NaN,practic_1,NaN,NaN,0.0,4.0,30.0
1,0,29,2,1,1,0,0.2,0.2,33.720673,NaN,practic_1,NaN,NaN,0.0,4.0,30.0
1,0,29,1,1,1,0,0.2,0.2,33.720673,NaN,practic_1,NaN,NaN,0.0,4.0,30.0
1,0,29,4,1,1,0,0.3058101,0.3058101,278.83795,NaN,practic_1,NaN,NaN,0.0,4.0,30.0
1,0,29,3,1,1,0,0.3,0.3,40.38734,NaN,practic_1,NaN,NaN,0.0,4.0,30.0
1,0,29,2,1,1,0,0.3,0.3,40.38734,NaN,practic_1,NaN,NaN,0.0,4.0,30.0
1,0,29,1,1,1,0,0.3,0.3,40.38734,NaN,practic_1,NaN,NaN,0.0,4.0,30.0
1,0,29,4,1,1,0,0.3058101,0.3058101,141.16202,NaN,practic_1,NaN,NaN,0.0,4.0,30.0
1,0,29,3,1,1,0,0.4,0.4,86.27933,NaN,practic_1,NaN,NaN,0.0,4.0,30.0
1,0,29,2,1,1,0,0.4,0.4,86.27933,NaN,practic_1,NaN,NaN,0.0,4.0,30.0
1,0,29,1,1,1,0,0.4,0.4,86.27933,NaN,practic_1,NaN,NaN,0.0,4.0,30.0
1,0,29,4,1,1,0,0.3058101,0.3058101,60.000004,NaN,practic_1,NaN,NaN,0.0,4.0,30.0
1,0,29,3,1,1,0,0.4,0.4,258.83798,NaN,practic_1,NaN,NaN,0.0,4.0,30.0
1,0,29,2,1,1,0,0.1,0.1,40.581013,NaN,practic_1,NaN,NaN,0.0,4.0,30.0
1,0,29,1,1,1,0,0.1,0.1,40.581013,NaN,practic_1,NaN,NaN,0.0,4.0,30.0
1,0,28,4,1,1,0,0.3058101,0.3058101,298.83798,NaN,practic_1,NaN,NaN,0.0,4.0,30.0
1,0,28,3,1,1,0,0.2,0.2,33.720673,NaN,practic_1,NaN,NaN,0.0,4.0,30.0
1,0,28,2,1,1,0,0.2,0.2,33.720673,NaN,practic_1,NaN,NaN,0.0,4.0,30.0
1,0,28,1,1,1,0,0.2,0.2,33.720673,NaN,practic_1,NaN,NaN,0.0,4.0,30.0
1,0,28,4,1,1,0,0.3058101,0.3058101,278.83795,NaN,practic_1,NaN,NaN,0.0,4.0,30.0
1,0,28,3,1,1,0,0.3,0.3,40.38734,NaN,practic_1,NaN,NaN,0.0,4.0,30.0
1,0,28,2,1,1,0,0.3,0.3,40.38734,NaN,practic_1,NaN,NaN,0.0,4.0,30.0
1,0,28,1,1,1,0,0.3,0.3,40.38734,NaN,practic_1,NaN,NaN,0.0,4.0,30.0
1,0,28,4,1,1,0,0.3058101,0.3058101,141.16202,NaN,practic_1,NaN,NaN,0.0,4.0,30.0
1,0,28,3,1,1,0,0.4,0.4,86.27933,NaN,practic_1,NaN,NaN,0.0,4.0,30.0
1,0,28,2,1,1,0,0.4,0.4,86.27933,NaN,practic_1,NaN,NaN,0.0,4.0,30.0
1,0,28,1,1,1,0,0.4,0.4,86.27933,NaN,practic_1,NaN,NaN,0.0,4.0,30.0
1,0,28,4,1,1,0,0.3058101,0.3058101,318.83798,NaN,practic_1,NaN,NaN,0.0,4.0,30.0
1,0,28,3,1,1,0,0.1,0.1,27.054008,NaN,practic_1,NaN,NaN,0.0,4.0,30.0
1,0,28,2,1,1,0,0.1,0.1,27.054008,NaN,practic_1,NaN,NaN,0.0,4.0,30.0
1,0,28,1,1,1,0,0.1,0.1,27.054008,NaN,practic_1,NaN,NaN,0.0,4.0,30.0
1,0,28,4,1,1,0,0.3058101,0.3058101,298.83798,NaN,practic_1,NaN,NaN,0.0,4.0,30.0
1,0,28,3,1,1,0,0.2,0.2,33.720673,NaN,practic_1,NaN,NaN,0.0,4.0,30.0
1,0,28,2,1,1,0,0.2,0.2,33.720673,NaN,practic_1,NaN,NaN,0.0,4.0,30.0
1,0,28,1,1,1,0,0.2,0.2,33.720673,NaN,practic_1,NaN,NaN,0.0,4.0,30.0
1,0,28,4,1,1,0,0.3058101,0.3058101,278.83795,NaN,practic_1,NaN,NaN,0.0,4.0,30.0
1,0,28,3,1,1,0,0.3,0.3,40.38734,NaN,practic_1,NaN,NaN,0.0,4.0,30.0
1,0,28,2,1,1,0,0.3,0.3,40.38734,NaN,practic_1,NaN,NaN,0.0,4.0,30.0
1,0,28,1,1,1,0,0.3,0.3,40.38734,NaN,practic_1,NaN,NaN,0.0,4.0,30.0
1,0,28,4,1,1,0,0.3058101,0.3058101,141.16202,NaN,practic_1,NaN,NaN,0.0,4.0,30.0
1,0,28,3,1,1,0,0.4,0.4,86.27933,NaN,practic_1,NaN,NaN,0.0,4.0,30.0
1,0,28,2,1,1,0,0.4,0.4,86.27933,NaN,practic_1,NaN,NaN,0.0,4.0,30.0
1,0,28,1,1,1,0,0.4,0.4,86.27933,NaN,practic_1,NaN,NaN,0.0,4.0,30.0
1,0,28,1,1,1,0,0.1,0.1,27.054008,NaN,practic_1,NaN,NaN,0.0,4.0,30.0
1,0,28,4,1,1,0,0.3058101,0.3058101,318.83798,NaN,practic_1,NaN,NaN,0.0,4.0,30.0
1,0,28,3,1,1,0,0.1,0.1,27.054008,NaN,practic_1,NaN,NaN,0.0,4.0,30.0
1,0,28,2,1,1,0,0.1,0.1,27.054008,NaN,practic_1,NaN,NaN,0.0,4.0,30.0
1,0,28,1,1,1,0,0.2,0.2,33.720673,NaN,practic_1,NaN,NaN,0.0,4.0,30.0
1,0,28,4,1,1,0,0.3058101,0.3058101,298.83798,NaN,practic_1,NaN,NaN,0.0,4.0,30.0
1,0,28,3,1,1,0,0.2,0.2,33.720673,NaN,practic_1,NaN,NaN,0.0,4.0,30.0
1,0,28,2,1,1,0,0.2,0.2,33.720673,NaN,practic_1,NaN,NaN,0.0,4.0,30.0
1,0,28,4,1,1,0,0.3058101,0.3058101,278.83795,NaN,practic_1,NaN,NaN,0.0,4.0,30.0
1,0,28,3,1,1,0,0.3,0.3,40.38734,NaN,practic_1,NaN,NaN,0.0,4.0,30.0
1,0,28,2,1,1,0,0.3,0.3,40.38734,NaN,practic_1,NaN,NaN,0.0,4.0,30.0
1,0,28,1,1,1,0,0.3,0.3,40.38734,NaN,practic_1,NaN,NaN,0.0,4.0,30.0
1,0,27,1,1,1,0,0.4,0.4,86.27933,NaN,practic_1,NaN,NaN,0.0,4.0,30.0
1,0,27,4,1,1,0,0.3058101,0.3058101,141.16202,NaN,practic_1,NaN,NaN,0.0,4.0,30.0
1,0,27,3,1,1,0,0.4,0.4,86.27933,NaN,practic_1,NaN,NaN,0.0,4.0,30.0
1,0,27,2,1,1,0,0.4,0.4,86.27933,NaN,practic_1,NaN,NaN,0.0,4.0,30.0
1,0,27,4,1,1,0,0.3058101,0.3058101,318.83798,NaN,practic_1,NaN,NaN,0.0,4.0,30.0
1,0,27,3,1,1,0,0.1,0.1,27.054008,NaN,practic_1,NaN,NaN,0.0,4.0,30.0
1,0,27,2,1,1,0,0.1,0.1,27.054008,NaN,practic_1,NaN,NaN,0.0,4.0,30.0
1,0,27,1,1,1,0,0.1,0.1,27.054008,NaN,practic_1,NaN,NaN,0.0,4.0,30.0
1,0,27,4,1,1,0,0.3058101,0.3058101,298.83798,NaN,practic_1,NaN,NaN,0.0,4.0,30.0
1,0,27,3,1,1,0,0.2,0.2,33.720673,NaN,practic_1,NaN,NaN,0.0,4.0,30.0
1,0,27,2,1,1,0,0.2,0.2,33.720673,NaN,practic_1,NaN,NaN,0.0,4.0,30.0
1,0,27,1,1,1,0,0.2,0.2,33.720673,NaN,practic_1,NaN,NaN,0.0,4.0,30.0
1,0,27,4,1,1,0,0.3058101,0.3058101,278.83795,NaN,practic_1,NaN,NaN,0.0,4.0,30.0
1,0,27,3,1,1,0,0.3,0.3,40.38734,NaN,practic_1,NaN,NaN,0.0,4.0,30.0
1,0,27,2,1,1,0,0.3,0.3,40.38734,NaN,practic_1,NaN,NaN,0.0,4.0,30.0
1,0,27,1,1,1,0,0.3,0.3,40.38734,NaN,practic_1,NaN,NaN,0.0,4.0,30.0
1,0,27,4,1,1,0,0.3058101,0.3058101,141.16202,NaN,practic_1,NaN,NaN,0.0,4.0,30.0
1,0,27,3,1,1,0,0.4,0.4,86.27933,NaN,practic_1,NaN,NaN,0.0,4.0,30.0
1,0,27,2,1,1,0,0.4,0.4,86.27933,NaN,practic_1,NaN,NaN,0.0,4.0,30.0
1,0,27,1,1,1,0,0.4,0.4,86.27933,NaN,practic_1,NaN,NaN,0.0,4.0,30.0
1,0,27,4,1,1,0,0.3058101,0.3058101,318.83798,NaN,practic_1,NaN,NaN,0.0,4.0,30.0
1,0,27,3,1,1,0,0.1,0.1,27.054008,NaN,practic_1,NaN,NaN,0.0,4.0,30.0
1,0,27,2,1,1,0,0.1,0.1,27.054008,NaN,practic_1,NaN,NaN,0.0,4.0,30.0
1,0,27,1,1,1,0,0.1,0.1,27.054008,NaN,practic_1,NaN,NaN,0.0,4.0,30.0
1,0,27,4,1,1,0,0.3058101,0.3058101,298.83798,NaN,practic_1,NaN,NaN,0.0,4.0,30.0
1,0,27,3,1,1,0,0.2,0.2,33.720673,NaN,practic_1,NaN,NaN,0.0,4.0,30.0
1,0,27,2,1,1,0,0.2,0.2,33.720673,NaN,practic_1,NaN,NaN,0.0,4.0,30.0
1,0,27,1,1,1,0,0.2,0.2,33.720673,NaN,practic_1,NaN,NaN,0.0,4.0,30.0
1,0,27,4,1,1,0,0.3058101,0.3058101,278.83795,NaN,practic_1,NaN,NaN,0.0,4.0,30.0
1,0,27,3,1,1,0,0.3,0.3,40.38734,NaN,practic_1,NaN,NaN,0.0,4.0,30.0
1,0,27,2,1,1,0,0.3,0.3,40.38734,NaN,practic_1,NaN,NaN,0.0,4.0,30.0
1,0,27,1,1,1,0,0.3,0.3,40.38734,NaN,practic_1,NaN,NaN,0.0,4.0,30.0
1,0,27,4,1,1,0,0.3058101,0.3058101,141.16202,NaN,practic_1,NaN,NaN,0.0,4.0,30.0
1,0,27,3,1,1,0,0.4,0.4,86.27933,NaN,practic_1,NaN,NaN,0.0,4.0,30.0
1,0,27,2,1,1,0,0.4,0.4,86.27933,NaN,practic_1,NaN,NaN,0.0,4.0,30.0
1,0,27,1,1,1,0,0.4,0.4,86.27933,NaN,practic_1,NaN,NaN,0.0,4.0,30.0
1,0,27,4,1,1,0,0.3058101,0.3058101,318.83798,NaN,practic_1,NaN,NaN,0.0,4.0,30.0
1,0,27,3,1,1,0,0.1,0.1,27.054008,NaN,practic_1,NaN,NaN,0.0,4.0,30.0
1,0,27,2,1,1,0,0.1,0.1,27.054008,NaN,practic_1,NaN,NaN,0.0,4.0,30.0
1,0,27,1,1,1,0,0.1,0.1,27.054008,NaN,practic_1,NaN,NaN,0.0,4.0,30.0
1,0,26,4,1,1,0,0.3058101,0.3058101,298.83798,NaN,practic_1,NaN,NaN,0.0,4.0,30.0
1,0,26,3,1,1,0,0.2,0.2,33.720673,NaN,practic_1,NaN,NaN,0.0,4.0,30.0
1,0,26,2,1,1,0,0.2,0.2,33.720673,NaN,practic_1,NaN,NaN,0.0,4.0,30.0
1,0,26,1,1,1,0,0.2,0.2,33.720673,NaN,practic_1,NaN,NaN,0.0,4.0,30.0
1,0,26,4,1,1,0,0.3058101,0.3058101,278.83795,NaN,practic_1,NaN,NaN,0.0,4.0,30.0
1,0,26,3,1,1,0,0.3,0.3,40.38734,NaN,practic_1,NaN,NaN,0.0,4.0,30.0
1,0,26,2,1,1,0,0.3,0.3,40.38734,NaN,practic_1,NaN,NaN,0.0,4.0,30.0
1,0,26,1,1,1,0,0.3,0.3,40.38734,NaN,practic_1,NaN,NaN,0.0,4.0,30.0
1,0,26,4,1,1,0,0.3058101,0.3058101,141.16202,NaN,practic_1,NaN,NaN,0.0,4.0,30.0
1,0,26,3,1,1,0,0.4,0.4,86.27933,NaN,practic_1,NaN,NaN,0.0,4.0,30.0
1,0,26,2,1,1,0,0.4,0.4,86.27933,NaN,practic_1,NaN,NaN,0.0,4.0,30.0
1,0,26,1,1,1,0,0.4,0.4,86.27933,NaN,practic_1,NaN,NaN,0.0,4.0,30.0
1,0,26,4,1,1,0,0.3058101,0.3058101,318.83798,NaN,practic_1,NaN,NaN,0.0,4.0,30.0
1,0,26,3,1,1,0,0.1,0.1,27.054008,NaN,practic_1,NaN,NaN,0.0,4.0,30.0
1,0,26,2,1,1,0,0.1,0.1,27.054008,NaN,practic_1,NaN,NaN,0.0,4.0,30.0
1,0,26,1,1,1,0,0.1,0.1,27.054008,NaN,practic_1,NaN,NaN,0.0,4.0,30.0
1,0,26,4,1,1,0,0.3058101,0.3058101,298.83798,NaN,practic_1,NaN,NaN,0.0,4.0,30.0
1,0,26,3,1,1,0,0.2,0.2,33.720673,NaN,practic_1,NaN,NaN,0.0,4.0,30.0
1,0,26,2,1,1,0,0.2,0.2,33.720673,NaN,practic_1,NaN,NaN,0.0,4.0,30.0
1,0,26,1,1,1,0,0.2,0.2,33.720673,NaN,practic_1,NaN,NaN,0.0,4.0,30.0
1,0,26,4,1,1,0,0.3058101,0.3058101,278.83795,NaN,practic_1,NaN,NaN,0.0,4.0,30.0
1,0,26,3,1,1,0,0.3,0.3,40.38734,NaN,practic_1,NaN,NaN,0.0,4.0,30.0
1,0,26,2,1,1,0,0.3,0.3,40.38734,NaN,practic_1,NaN,NaN,0.0,4.0,30.0
1,0,26,1,1,1,0,0.3,0.3,40.38734,NaN,practic_1,NaN,NaN,0.0,4.0,30.0
1,0,26,4,1,1,0,0.3058101,0.3058101,141.16202,NaN,practic_1,NaN,NaN,0.0,4.0,30.0
1,0,26,3,1,1,0,0.4,0.4,86.27933,NaN,practic_1,NaN,NaN,0.0,4.0,30.0
1,0,26,2,1,1,0,0.4,0.4,86.27933,NaN,practic_1,NaN,NaN,0.0,4.0,30.0
1,0,26,1,1,1,0,0.4,0.4,86.27933,NaN,practic_1,NaN,NaN,0.0,4.0,30.0
1,0,26,4,1,1,0,0.3058101,0.3058101,318.83798,NaN,practic_1,NaN,NaN,0.0,4.0,30.0
1,0,26,3,1,1,0,0.1,0.1,27.054008,NaN,practic_1,NaN,NaN,0.0,4.0,30.0
1,0,26,2,1,1,0,0.1,0.1,27.054008,NaN,practic_1,NaN,NaN,0.0,4.0,30.0
1,0,26,1,1,1,0,0.1,0.1,27.054008,NaN,practic_1,NaN,NaN,0.0,4.0,30.0
1,0,26,4,1,1,0,0.3058101,0.3058101,298.83798,NaN,practic_1,NaN,NaN,0.0,4.0,30.0
1,0,26,3,1,1,0,0.2,0.2,33.720673,NaN,practic_1,NaN,NaN,0.0,4.0,30.0
1,0,26,2,1,1,0,0.2,0.2,33.720673,NaN,practic_1,NaN,NaN,0.0,4.0,30.0
1,0,26,1,1,1,0,0.2,0.2,33.720673,NaN,practic_1,NaN,NaN,0.0,4.0,30.0
1,0,26,4,1,1,0,0.3058101,0.3058101,278.83795,NaN,practic_1,NaN,NaN,0.0,4.0,30.0
1,0,26,3,1,1,0,0.3,0.3,40.38734,NaN,practic_1,NaN,NaN,0.0,4.0,30.0
1,0,26,2,1,1,0,0.3,0.3,40.38734,NaN,practic_1,NaN,NaN,0.0,4.0,30.0
1,0,26,1,1,1,0,0.3,0.3,40.38734,NaN,practic_1,NaN,NaN,0.0,4.0,30.0
1,0,25,4,1,1,0,0.3058101,0.3058101,141.16202,NaN,practic_1,NaN,NaN,0.0,4.0,30.0
1,0,25,3,1,1,0,0.4,0.4,86.27933,NaN,practic_1,NaN,NaN,0.0,4.0,30.0
1,0,25,2,1,1,0,0.4,0.4,86.27933,NaN,practic_1,NaN,NaN,0.0,4.0,30.0
1,0,25,1,1,1,0,0.4,0.4,86.27933,NaN,practic_1,NaN,NaN,0.0,4.0,30.0
1,0,25,4,1,1,0,0.3058101,0.3058101,318.83798,NaN,practic_1,NaN,NaN,0.0,4.0,30.0
1,0,25,3,1,1,0,0.1,0.1,27.054008,NaN,practic_1,NaN,NaN,0.0,4.0,30.0
1,0,25,2,1,1,0,0.1,0.1,27.054008,NaN,practic_1,NaN,NaN,0.0,4.0,30.0
1,0,25,1,1,1,0,0.1,0.1,27.054008,NaN,practic_1,NaN,NaN,0.0,4.0,30.0
1,0,25,1,1,1,0,0.2,0.2,33.720673,NaN,practic_1,NaN,NaN,0.0,4.0,30.0
1,0,25,4,1,1,0,0.3058101,0.3058101,298.83798,NaN,practic_1,NaN,NaN,0.0,4.0,30.0
1,0,25,3,1,1,0,0.2,0.2,33.720673,NaN,practic_1,NaN,NaN,0.0,4.0,30.0
1,0,25,2,1,1,0,0.2,0.2,33.720673,NaN,practic_1,NaN,NaN,0.0,4.0,30.0
1,0,25,1,1,1,0,0.3,0.3,40.38734,NaN,practic_1,NaN,NaN,0.0,4.0,30.0
1,0,25,4,1,1,0,0.3058101,0.3058101,278.83795,NaN,practic_1,NaN,NaN,0.0,4.0,30.0
1,0,25,3,1,1,0,0.3,0.3,40.38734,NaN,practic_1,NaN,NaN,0.0,4.0,30.0
1,0,25,2,1,1,0,0.3,0.3,40.38734,NaN,practic_1,NaN,NaN,0.0,4.0,30.0
1,0,25,4,1,1,0,0.3058101,0.3058101,141.16202,NaN,practic_1,NaN,NaN,0.0,4.0,30.0
1,0,25,3,1,1,0,0.4,0.4,86.27933,NaN,practic_1,NaN,NaN,0.0,4.0,30.0
1,0,25,2,1,1,0,0.4,0.4,86.27933,NaN,practic_1,NaN,NaN,0.0,4.0,30.0
1,0,25,1,1,1,0,0.4,0.4,86.27933,NaN,practic_1,NaN,NaN,0.0,4.0,30.0
1,0,25,4,1,1,0,0.3058101,0.3058101,318.83798,NaN,practic_1,NaN,NaN,0.0,4.0,30.0
1,0,25,3,1,1,0,0.1,0.1,27.054008,NaN,practic_1,NaN,NaN,0.0,4.0,30.0
1,0,25,2,1,1,0,0.1,0.1,27.054008,NaN,practic_1,NaN,NaN,0.0,4.0,30.0
1,0,25,1,1,1,0,0.1,0.1,27.054008,NaN,practic_1,NaN,NaN,0.0,4.0,30.0
1,0,25,1,1,1,0,0.2,0.2,33.720673,NaN,practic_1,NaN,NaN,0.0,4.0,30.0
1,0,25,4,1,1,0,0.3058101,0.3058101,298.83798,NaN,practic_1,NaN,NaN,0.0,4.0,30.0
1,0,25,3,1,1,0,0.2,0.2,33.720673,NaN,practic_1,NaN,NaN,0.0,4.0,30.0
1,0,25,2,1,1,0,0.2,0.2,33.720673,NaN,practic_1,NaN,NaN,0.0,4.0,30.0
1,0,25,1,1,1,0,0.3,0.3,10.581009,NaN,practic_1,NaN,NaN,0.0,4.0,30.0
1,0,25,4,1,1,0,0.3058101,0.3058101,278.83795,NaN,practic_1,NaN,NaN,0.0,4.0,30.0
1,0,25,3,1,1,0,0.2,0.2,100.0,NaN,practic_1,NaN,NaN,0.0,4.0,30.0
1,0,25,2,1,1,0,0.3,0.3,10.581009,NaN,practic_1,NaN,NaN,0.0,4.0,30.0
1,0,25,1,1,1,0,0.4,0.4,129.41899,NaN,practic_1,NaN,NaN,0.0,4.0,30.0
1,0,25,4,1,1,0,0.3058101,0.3058101,19.999998,NaN,practic_1,NaN,NaN,0.0,4.0,30.0
1,0,25,3,1,1,0,0.3,0.3,121.16202,NaN,practic_1,NaN,NaN,0.0,4.0,30.0
1,0,25,2,1,1,0,0.4,0.4,129.41899,NaN,practic_1,NaN,NaN,0.0,4.0,30.0
1,0,25,4,1,1,0,0.3058101,0.3058101,60.000004,NaN,practic_1,NaN,NaN,0.0,4.0,30.0
1,0,25,3,1,1,0,0.4,0.4,258.83798,NaN,practic_1,NaN,NaN,0.0,4.0,30.0
1,0,25,2,1,1,0,0.1,0.1,40.581013,NaN,practic_1,NaN,NaN,0.0,4.0,30.0
1,0,25,1,1,1,0,0.1,0.1,40.581013,NaN,practic_1,NaN,NaN,0.0,4.0,30.0
1,0,24,4,1,1,0,0.3058101,0.3058101,298.83798,NaN,practic_1,NaN,NaN,0.0,4.0,30.0
1,0,24,3,1,1,0,0.1,0.1,60.000004,NaN,practic_1,NaN,NaN,0.0,4.0,30.0
1,0,24,2,1,1,0,0.2,0.2,20.58101,NaN,practic_1,NaN,NaN,0.0,4.0,30.0
1,0,24,1,1,1,0,0.2,0.2,20.58101,NaN,practic_1,NaN,NaN,0.0,4.0,30.0
1,0,24,4,1,1,0,0.3058101,0.3058101,278.83795,NaN,practic_1,NaN,NaN,0.0,4.0,30.0
1,0,24,3,1,1,0,0.2,0.2,100.0,NaN,practic_1,NaN,NaN,0.0,4.0,30.0
1,0,24,2,1,1,0,0.3,0.3,10.581009,NaN,practic_1,NaN,NaN,0.0,4.0,30.0
1,0,24,1,1,1,0,0.3,0.3,10.581009,NaN,practic_1,NaN,NaN,0.0,4.0,30.0
1,0,24,1,1,1,0,0.4,0.4,129.41899,NaN,practic_1,NaN,NaN,0.0,4.0,30.0
1,0,24,4,1,1,0,0.3058101,0.3058101,19.999998,NaN,practic_1,NaN,NaN,0.0,4.0,30.0
1,0,24,3,1,1,0,0.3,0.3,121.16202,NaN,practic_1,NaN,NaN,0.0,4.0,30.0
1,0,24,2,1,1,0,0.4,0.4,129.41899,NaN,practic_1,NaN,NaN,0.0,4.0,30.0
1,0,24,4,1,1,0,0.3058101,0.3058101,60.000004,NaN,practic_1,NaN,NaN,0.0,4.0,30.0
1,0,24,3,1,1,0,0.4,0.4,258.83798,NaN,practic_1,NaN,NaN,0.0,4.0,30.0
1,0,24,2,1,1,0,0.1,0.1,40.581013,NaN,practic_1,NaN,NaN,0.0,4.0,30.0
1,0,24,1,1,1,0,0.1,0.1,40.581013,NaN,practic_1,NaN,NaN,0.0,4.0,30.0
1,0,24,1,1,1,0,0.2,0.2,20.58101,NaN,practic_1,NaN,NaN,0.0,4.0,30.0
1,0,24,4,1,1,0,0.3058101,0.3058101,298.83798,NaN,practic_1,NaN,NaN,0.0,4.0,30.0
1,0,24,3,1,1,0,0.1,0.1,60.000004,NaN,practic_1,NaN,NaN,0.0,4.0,30.0
1,0,24,2,1,1,0,0.2,0.2,20.58101,NaN,practic_1,NaN,NaN,0.0,4.0,30.0
1,0,24,4,1,1,0,0.3058101,0.3058101,278.83795,NaN,practic_1,NaN,NaN,0.0,4.0,30.0
1,0,24,3,1,1,0,0.2,0.2,100.0,NaN,practic_1,NaN,NaN,0.0,4.0,30.0
1,0,24,2,1,1,0,0.3,0.3,10.581009,NaN,practic_1,NaN,NaN,0.0,4.0,30.0
1,0,24,1,1,1,0,0.3,0.3,10.581009,NaN,practic_1,NaN,NaN,0.0,4.0,30.0
1,0,24,4,1,1,0,0.3058101,0.3058101,19.999998,NaN,practic_1,NaN,NaN,0.0,4.0,30.0
1,0,24,3,1,1,0,0.3,0.3,121.16202,NaN,practic_1,NaN,NaN,0.0,4.0,30.0
1,0,24,2,1,1,0,0.4,0.4,129.41899,NaN,practic_1,NaN,NaN,0.0,4.0,30.0
1,0,24,1,1,1,0,0.4,0.4,129.41899,NaN,practic_1,NaN,NaN,0.0,4.0,30.0
1,0,24,4,1,1,0,0.3058101,0.3058101,60.000004,NaN,practic_1,NaN,NaN,0.0,4.0,30.0
1,0,24,3,1,1,0,0.4,0.4,258.83798,NaN,practic_1,NaN,NaN,0.0,4.0,30.0
1,0,24,2,1,1,0,0.1,0.1,40.581013,NaN,practic_1,NaN,NaN,0.0,4.0,30.0
1,0,24,1,1,1,0,0.1,0.1,40.581013,NaN,practic_1,NaN,NaN,0.0,4.0,30.0
1,0,24,4,1,1,0,0.3058101,0.3058101,298.83798,NaN,practic_1,NaN,NaN,0.0,4.0,30.0
1,0,24,3,1,1,0,0.1,0.1,60.000004,NaN,practic_1,NaN,NaN,0.0,4.0,30.0
1,0,24,2,1,1,0,0.2,0.2,20.58101,NaN,practic_1,NaN,NaN,0.0,4.0,30.0
1,0,24,1,1,1,0,0.2,0.2,20.58101,NaN,practic_1,NaN,NaN,0.0,4.0,30.0
1,0,24,1,1,1,0,0.3,0.3,10.581009,NaN,practic_1,NaN,NaN,0.0,4.0,30.0
1,0,24,4,1,1,0,0.3058101,0.3058101,278.83795,NaN,practic_1,NaN,NaN,0.0,4.0,30.0
1,0,24,3,1,1,0,0.2,0.2,100.0,NaN,practic_1,NaN,NaN,0.0,4.0,30.0
1,0,24,2,1,1,0,0.3,0.3,10.581009,NaN,practic_1,NaN,NaN,0.0,4.0,30.0
1,0,23,4,1,1,0,0.3058101,0.3058101,19.999998,NaN,practic_1,NaN,NaN,0.0,4.0,30.0
1,0,23,3,1,1,0,0.3,0.3,121.16202,NaN,practic_1,NaN,NaN,0.0,4.0,30.0
1,0,23,2,1,1,0,0.4,0.4,129.41899,NaN,practic_1,NaN,NaN,0.0,4.0,30.0
1,0,23,1,1,1,0,0.4,0.4,129.41899,NaN,practic_1,NaN,NaN,0.0,4.0,30.0
1,0,23,4,1,1,0,0.3058101,0.3058101,60.000004,NaN,practic_1,NaN,NaN,0.0,4.0,30.0
1,0,23,3,1,1,0,0.4,0.4,258.83798,NaN,practic_1,NaN,NaN,0.0,4.0,30.0
1,0,23,2,1,1,0,0.1,0.1,40.581013,NaN,practic_1,NaN,NaN,0.0,4.0,30.0
1,0,23,1,1,1,0,0.1,0.1,40.581013,NaN,practic_1,NaN,NaN,0.0,4.0,30.0
1,0,23,4,1,1,0,0.3058101,0.3058101,298.83798,NaN,practic_1,NaN,NaN,0.0,4.0,30.0
1,0,23,3,1,1,0,0.1,0.1,60.000004,NaN,practic_1,NaN,NaN,0.0,4.0,30.0
1,0,23,2,1,1,0,0.2,0.2,20.58101,NaN,practic_1,NaN,NaN,0.0,4.0,30.0
1,0,23,1,1,1,0,0.2,0.2,20.58101,NaN,practic_1,NaN,NaN,0.0,4.0,30.0
1,0,23,4,1,1,0,0.3058101,0.3058101,278.83795,NaN,practic_1,NaN,NaN,0.0,4.0,30.0
1,0,23,3,1,1,0,0.2,0.2,100.0,NaN,practic_1,NaN,NaN,0.0,4.0,30.0
1,0,23,2,1,1,0,0.3,0.3,10.581009,NaN,practic_1,NaN,NaN,0.0,4.0,30.0
1,0,23,1,1,1,0,0.3,0.3,10.581009,NaN,practic_1,NaN,NaN,0.0,4.0,30.0
1,0,23,4,1,1,0,0.3058101,0.3058101,19.999998,NaN,practic_1,NaN,NaN,0.0,4.0,30.0
1,0,23,3,1,1,0,0.3,0.3,121.16202,NaN,practic_1,NaN,NaN,0.0,4.0,30.0
1,0,23,2,1,1,0,0.4,0.4,129.41899,NaN,practic_1,NaN,NaN,0.0,4.0,30.0
1,0,23,1,1,1,0,0.4,0.4,129.41899,NaN,practic_1,NaN,NaN,0.0,4.0,30.0
1,0,23,4,1,1,0,0.3058101,0.3058101,60.000004,NaN,practic_1,NaN,NaN,0.0,4.0,30.0
1,0,23,3,1,1,0,0.4,0.4,258.83798,NaN,practic_1,NaN,NaN,0.0,4.0,30.0
1,0,23,2,1,1,0,0.1,0.1,40.581013,NaN,practic_1,NaN,NaN,0.0,4.0,30.0
1,0,23,1,1,1,0,0.1,0.1,40.581013,NaN,practic_1,NaN,NaN,0.0,4.0,30.0
1,0,23,4,1,1,0,0.3058101,0.3058101,40.0,NaN,practic_1,NaN,NaN,0.0,4.0,30.0
1,0,23,3,1,1,0,0.4,0.4,258.83798,NaN,practic_1,NaN,NaN,0.0,4.0,30.0
1,0,23,2,1,1,0,0.2,0.2,50.58101,NaN,practic_1,NaN,NaN,0.0,4.0,30.0
1,0,23,1,1,1,0,0.2,0.2,50.58101,NaN,practic_1,NaN,NaN,0.0,4.0,30.0
1,0,23,1,1,1,0,0.3,0.3,10.581009,NaN,practic_1,NaN,NaN,0.0,4.0,30.0
1,0,23,4,1,1,0,0.3058101,0.3058101,278.83795,NaN,practic_1,NaN,NaN,0.0,4.0,30.0
1,0,23,3,1,1,0,0.2,0.2,100.0,NaN,practic_1,NaN,NaN,0.0,4.0,30.0
1,0,23,2,1,1,0,0.3,0.3,10.581009,NaN,practic_1,NaN,NaN,0.0,4.0,30.0
1,0,23,1,1,1,0,0.4,0.4,129.41899,NaN,practic_1,NaN,NaN,0.0,4.0,30.0
1,0,23,4,1,1,0,0.3058101,0.3058101,19.999998,NaN,practic_1,NaN,NaN,0.0,4.0,30.0
1,0,23,3,1,1,0,0.3,0.3,121.16202,NaN,practic_1,NaN,NaN,0.0,4.0,30.0
1,0,23,2,1,1,0,0.4,0.4,129.41899,NaN,practic_1,NaN,NaN,0.0,4.0,30.0
1,0,23,4,1,1,0,0.3058101,0.3058101,60.000004,NaN,practic_1,NaN,NaN,0.0,4.0,30.0
1,0,23,3,1,1,0,0.4,0.4,258.83798,NaN,practic_1,NaN,NaN,0.0,4.0,30.0
1,0,23,2,1,1,0,0.1,0.1,40.581013,NaN,practic_1,NaN,NaN,0.0,4.0,30.0
1,0,23,1,1,1,0,0.1,0.1,40.581013,NaN,practic_1,NaN,NaN,0.0,4.0,30.0
1,0,22,1,1,1,0,0.2,0.2,20.58101,NaN,practic_1,NaN,NaN,0.0,4.0,30.0
1,0,22,4,1,1,0,0.3058101,0.3058101,298.83798,NaN,practic_1,NaN,NaN,0.0,4.0,30.0
1,0,22,3,1,1,0,0.1,0.1,60.000004,NaN,practic_1,NaN,NaN,0.0,4.0,30.0
1,0,22,2,1,1,0,0.2,0.2,20.58101,NaN,practic_1,NaN,NaN,0.0,4.0,30.0
1,0,22,4,1,1,0,0.3058101,0.3058101,278.83795,NaN,practic_1,NaN,NaN,0.0,4.0,30.0
1,0,22,3,1,1,0,0.2,0.2,100.0,NaN,practic_1,NaN,NaN,0.0,4.0,30.0
1,0,22,2,1,1,0,0.3,0.3,10.581009,NaN,practic_1,NaN,NaN,0.0,4.0,30.0
1,0,22,1,1,1,0,0.3,0.3,10.581009,NaN,practic_1,NaN,NaN,0.0,4.0,30.0
1,0,22,4,1,1,0,0.3058101,0.3058101,19.999998,NaN,practic_1,NaN,NaN,0.0,4.0,30.0
1,0,22,3,1,1,0,0.3,0.3,121.16202,NaN,practic_1,NaN,NaN,0.0,4.0,30.0
1,0,22,2,1,1,0,0.4,0.4,129.41899,NaN,practic_1,NaN,NaN,0.0,4.0,30.0
1,0,22,1,1,1,0,0.4,0.4,129.41899,NaN,practic_1,NaN,NaN,0.0,4.0,30.0
1,0,22,4,1,1,0,0.3058101,0.3058101,60.000004,NaN,practic_1,NaN,NaN,0.0,4.0,30.0
1,0,22,3,1,1,0,0.4,0.4,258.83798,NaN,practic_1,NaN,NaN,0.0,4.0,30.0
1,0,22,2,1,1,0,0.1,0.1,40.581013,NaN,practic_1,NaN,NaN,0.0,4.0,30.0
1,0,22,1,1,1,0,0.1,0.1,40.581013,NaN,practic_1,NaN,NaN,0.0,4.0,30.0
1,0,22,4,1,1,0,0.3058101,0.3058101,298.83798,NaN,practic_1,NaN,NaN,0.0,4.0,30.0
1,0,22,3,1,1,0,0.1,0.1,60.000004,NaN,practic_1,NaN,NaN,0.0,4.0,30.0
1,0,22,2,1,1,0,0.2,0.2,20.58101,NaN,practic_1,NaN,NaN,0.0,4.0,30.0
1,0,22,1,1,1,0,0.2,0.2,20.58101,NaN,practic_1,NaN,NaN,0.0,4.0,30.0
1,0,22,4,1,1,0,0.3058101,0.3058101,278.83795,NaN,practic_1,NaN,NaN,0.0,4.0,30.0
1,0,22,3,1,1,0,0.2,0.2,100.0,NaN,practic_1,NaN,NaN,0.0,4.0,30.0
1,0,22,2,1,1,0,0.3,0.3,10.581009,NaN,practic_1,NaN,NaN,0.0,4.0,30.0
1,0,22,1,1,1,0,0.3,0.3,10.581009,NaN,practic_1,NaN,NaN,0.0,4.0,30.0
1,0,22,4,1,1,0,0.3058101,0.3058101,19.999998,NaN,practic_1,NaN,NaN,0.0,4.0,30.0
1,0,22,3,1,1,0,0.3,0.3,121.16202,NaN,practic_1,NaN,NaN,0.0,4.0,30.0
1,0,22,2,1,1,0,0.4,0.4,129.41899,NaN,practic_1,NaN,NaN,0.0,4.0,30.0
1,0,22,1,1,1,0,0.4,0.4,129.41899,NaN,practic_1,NaN,NaN,0.0,4.0,30.0
1,0,22,4,1,1,0,0.3058101,0.3058101,60.000004,NaN,practic_1,NaN,NaN,0.0,4.0,30.0
1,0,22,3,1,1,0,0.4,0.4,258.83798,NaN,practic_1,NaN,NaN,0.0,4.0,30.0
1,0,22,2,1,1,0,0.1,0.1,40.581013,NaN,practic_1,NaN,NaN,0.0,4.0,30.0
1,0,22,1,1,1,0,0.1,0.1,40.581013,NaN,practic_1,NaN,NaN,0.0,4.0,30.0
1,0,22,1,1,1,0,0.2,0.2,20.58101,NaN,practic_1,NaN,NaN,0.0,4.0,30.0
1,0,22,4,1,1,0,0.3058101,0.3058101,298.83798,NaN,practic_1,NaN,NaN,0.0,4.0,30.0
1,0,22,3,1,1,0,0.1,0.1,60.000004,NaN,practic_1,NaN,NaN,0.0,4.0,30.0
1,0,22,2,1,1,0,0.2,0.2,20.58101,NaN,practic_1,NaN,NaN,0.0,4.0,30.0
1,0,22,4,1,1,0,0.3058101,0.3058101,278.83795,NaN,practic_1,NaN,NaN,0.0,4.0,30.0
1,0,22,3,1,1,0,0.2,0.2,100.0,NaN,practic_1,NaN,NaN,0.0,4.0,30.0
1,0,22,2,1,1,0,0.3,0.3,10.581009,NaN,practic_1,NaN,NaN,0.0,4.0,30.0
1,0,22,1,1,1,0,0.3,0.3,10.581009,NaN,practic_1,NaN,NaN,0.0,4.0,30.0
1,0,21,4,1,1,0,0.3058101,0.3058101,19.999998,NaN,practic_1,NaN,NaN,0.0,4.0,30.0
1,0,21,3,1,1,0,0.3,0.3,121.16202,NaN,practic_1,NaN,NaN,0.0,4.0,30.0
1,0,21,2,1,1,0,0.4,0.4,129.41899,NaN,practic_1,NaN,NaN,0.0,4.0,30.0
1,0,21,1,1,1,0,0.4,0.4,129.41899,NaN,practic_1,NaN,NaN,0.0,4.0,30.0
1,0,21,1,1,1,0,0.1,0.1,40.581013,NaN,practic_1,NaN,NaN,0.0,4.0,30.0
1,0,21,4,1,1,0,0.3058101,0.3058101,60.000004,NaN,practic_1,NaN,NaN,0.0,4.0,30.0
1,0,21,3,1,1,0,0.4,0.4,258.83798,NaN,practic_1,NaN,NaN,0.0,4.0,30.0
1,0,21,2,1,1,0,0.1,0.1,40.581013,NaN,practic_1,NaN,NaN,0.0,4.0,30.0
1,0,21,1,1,1,0,0.2,0.2,20.58101,NaN,practic_1,NaN,NaN,0.0,4.0,30.0
1,0,21,4,1,1,0,0.3058101,0.3058101,298.83798,NaN,practic_1,NaN,NaN,0.0,4.0,30.0
1,0,21,3,1,1,0,0.1,0.1,60.000004,NaN,practic_1,NaN,NaN,0.0,4.0,30.0
1,0,21,2,1,1,0,0.2,0.2,20.58101,NaN,practic_1,NaN,NaN,0.0,4.0,30.0
1,0,21,1,1,1,0,0.3,0.3,10.581009,NaN,practic_1,NaN,NaN,0.0,4.0,30.0
1,0,21,4,1,1,0,0.3058101,0.3058101,278.83795,NaN,practic_1,NaN,NaN,0.0,4.0,30.0
1,0,21,3,1,1,0,0.2,0.2,100.0,NaN,practic_1,NaN,NaN,0.0,4.0,30.0
1,0,21,2,1,1,0,0.3,0.3,10.581009,NaN,practic_1,NaN,NaN,0.0,4.0,30.0
1,0,21,4,1,1,0,0.3058101,0.3058101,19.999998,NaN,practic_1,NaN,NaN,0.0,4.0,30.0
1,0,21,3,1,1,0,0.3,0.3,121.16202,NaN,practic_1,NaN,NaN,0.0,4.0,30.0
1,0,21,2,1,1,0,0.4,0.4,129.41899,NaN,practic_1,NaN,NaN,0.0,4.0,30.0
1,0,21,1,1,1,0,0.4,0.4,129.41899,NaN,practic_1,NaN,NaN,0.0,4.0,30.0
1,0,21,4,1,1,0,0.3058101,0.3058101,60.000004,NaN,practic_1,NaN,NaN,0.0,4.0,30.0
1,0,21,3,1,1,0,0.4,0.4,258.83798,NaN,practic_1,NaN,NaN,0.0,4.0,30.0
1,0,21,2,1,1,0,0.1,0.1,40.581013,NaN,practic_1,NaN,NaN,0.0,4.0,30.0
1,0,21,1,1,1,0,0.1,0.1,40.581013,NaN,practic_1,NaN,NaN,0.0,4.0,30.0
1,0,21,4,1,1,0,0.3058101,0.3058101,298.83798,NaN,practic_1,NaN,NaN,0.0,4.0,30.0
1,0,21,3,1,1,0,0.1,0.1,60.000004,NaN,practic_1,NaN,NaN,0.0,4.0,30.0
1,0,21,2,1,1,0,0.2,0.2,20.58101,NaN,practic_1,NaN,NaN,0.0,4.0,30.0
1,0,21,1,1,1,0,0.2,0.2,20.58101,NaN,practic_1,NaN,NaN,0.0,4.0,30.0
1,0,21,1,1,1,0,0.3,0.3,10.581009,NaN,practic_1,NaN,NaN,0.0,4.0,30.0
1,0,21,4,1,1,0,0.3058101,0.3058101,278.83795,NaN,practic_1,NaN,NaN,0.0,4.0,30.0
1,0,21,3,1,1,0,0.2,0.2,100.0,NaN,practic_1,NaN,NaN,0.0,4.0,30.0
1,0,21,2,1,1,0,0.3,0.3,10.581009,NaN,practic_1,NaN,NaN,0.0,4.0,30.0
1,0,21,2,1,1,0,0.4,0.4,129.41899,NaN,practic_1,NaN,NaN,0.0,4.0,30.0
1,0,21,4,1,1,0,0.3058101,0.3058101,19.999998,NaN,practic_1,NaN,NaN,0.0,4.0,30.0
1,0,21,3,1,1,0,0.3,0.3,121.16202,NaN,practic_1,NaN,NaN,0.0,4.0,30.0
1,0,21,1,1,1,0,0.4,0.4,129.41899,NaN,practic_1,NaN,NaN,0.0,4.0,30.0
1,0,21,1,1,1,0,0.1,0.1,40.581013,NaN,practic_1,NaN,NaN,0.0,4.0,30.0
1,0,21,4,1,1,0,0.3058101,0.3058101,60.000004,NaN,practic_1,NaN,NaN,0.0,4.0,30.0
1,0,21,3,1,1,0,0.4,0.4,258.83798,NaN,practic_1,NaN,NaN,0.0,4.0,30.0
1,0,21,2,1,1,0,0.1,0.1,40.581013,NaN,practic_1,NaN,NaN,0.0,4.0,30.0
1,0,20,4,1,1,0,0.5888889,0.5888889,242.22221,NaN,practic_1,NaN,NaN,0.0,4.0,30.0
1,0,20,3,1,1,0,0.1,0.1,60.000004,NaN,practic_1,NaN,NaN,0.0,4.0,30.0
1,0,20,2,1,1,0,0.2,0.2,48.88889,NaN,practic_1,NaN,NaN,0.0,4.0,30.0
1,0,20,1,1,1,0,0.2,0.2,48.88889,NaN,practic_1,NaN,NaN,0.0,4.0,30.0
1,0,20,4,1,1,0,0.66190475,0.66190475,207.61905,NaN,practic_1,NaN,NaN,0.0,4.0,30.0
1,0,20,3,1,1,0,0.2,0.2,100.0,NaN,practic_1,NaN,NaN,0.0,4.0,30.0
1,0,20,2,1,1,0,0.3,0.3,46.190475,NaN,practic_1,NaN,NaN,0.0,4.0,30.0
1,0,20,1,1,1,0,0.3,0.3,46.190475,NaN,practic_1,NaN,NaN,0.0,4.0,30.0
1,0,20,4,1,1,0,0.74761903,0.74761903,170.4762,NaN,practic_1,NaN,NaN,0.0,4.0,30.0
1,0,20,3,1,1,0,0.3,0.3,140.00002,NaN,practic_1,NaN,NaN,0.0,4.0,30.0
1,0,20,2,1,1,0,0.4,0.4,44.7619,NaN,practic_1,NaN,NaN,0.0,4.0,30.0
1,0,20,1,1,1,0,0.4,0.4,44.7619,NaN,practic_1,NaN,NaN,0.0,4.0,30.0
1,0,20,4,1,1,0,0.7777778,0.7777778,164.44444,NaN,practic_1,NaN,NaN,0.0,4.0,30.0
1,0,20,3,1,1,0,0.4,0.4,135.55556,NaN,practic_1,NaN,NaN,0.0,4.0,30.0
1,0,20,2,1,1,0,0.1,0.1,50.0,NaN,practic_1,NaN,NaN,0.0,4.0,30.0
1,0,20,1,1,1,0,0.1,0.1,50.0,NaN,practic_1,NaN,NaN,0.0,4.0,30.0
1,0,20,4,1,1,0,0.7873016,0.7873016,202.53969,NaN,practic_1,NaN,NaN,0.0,4.0,30.0
1,0,20,3,1,1,0,0.1,0.1,60.000004,NaN,practic_1,NaN,NaN,0.0,4.0,30.0
1,0,20,2,1,1,0,0.2,0.2,68.73016,NaN,practic_1,NaN,NaN,0.0,4.0,30.0
1,0,20,1,1,1,0,0.2,0.2,68.73016,NaN,practic_1,NaN,NaN,0.0,4.0,30.0
1,0,20,4,1,1,0,0.8063492,0.8063492,178.73015,NaN,practic_1,NaN,NaN,0.0,4.0,30.0
1,0,20,3,1,1,0,0.2,0.2,100.0,NaN,practic_1,NaN,NaN,0.0,4.0,30.0
1,0,20,2,1,1,0,0.3,0.3,60.634922,NaN,practic_1,NaN,NaN,0.0,4.0,30.0
1,0,20,1,1,1,0,0.3,0.3,60.634922,NaN,practic_1,NaN,NaN,0.0,4.0,30.0
1,0,20,4,1,1,0,0.8063492,0.8063492,158.73015,NaN,practic_1,NaN,NaN,0.0,4.0,30.0
1,0,20,3,1,1,0,0.3,0.3,140.00002,NaN,practic_1,NaN,NaN,0.0,4.0,30.0
1,0,20,2,1,1,0,0.4,0.4,50.634922,NaN,practic_1,NaN,NaN,0.0,4.0,30.0
1,0,20,1,1,1,0,0.4,0.4,50.634922,NaN,practic_1,NaN,NaN,0.0,4.0,30.0
1,0,20,4,1,1,0,0.8063492,0.8063492,158.73015,NaN,practic_1,NaN,NaN,0.0,4.0,30.0
1,0,20,3,1,1,0,0.4,0.4,141.26985,NaN,practic_1,NaN,NaN,0.0,4.0,30.0
1,0,20,2,1,1,0,0.1,0.1,50.0,NaN,practic_1,NaN,NaN,0.0,4.0,30.0
1,0,20,1,1,1,0,0.1,0.1,50.0,NaN,practic_1,NaN,NaN,0.0,4.0,30.0
1,0,20,4,1,1,0,0.8063492,0.8063492,198.73016,NaN,practic_1,NaN,NaN,0.0,4.0,30.0
1,0,20,3,1,1,0,0.1,0.1,60.000004,NaN,practic_1,NaN,NaN,0.0,4.0,30.0
1,0,20,2,1,1,0,0.2,0.2,70.634926,NaN,practic_1,NaN,NaN,0.0,4.0,30.0
1,0,20,1,1,1,0,0.2,0.2,70.634926,NaN,practic_1,NaN,NaN,0.0,4.0,30.0
1,0,20,4,1,1,0,0.8063492,0.8063492,178.73015,NaN,practic_1,NaN,NaN,0.0,4.0,30.0
1,0,20,3,1,1,0,0.2,0.2,100.0,NaN,practic_1,NaN,NaN,0.0,4.0,30.0
1,0,20,2,1,1,0,0.3,0.3,60.634922,NaN,practic_1,NaN,NaN,0.0,4.0,30.0
1,0,20,1,1,1,0,0.3,0.3,60.634922,NaN,practic_1,NaN,NaN,0.0,4.0,30.0
1,0,19,4,1,1,0,0.8063492,0.8063492,158.73015,NaN,practic_1,NaN,NaN,0.0,4.0,30.0
1,0,19,3,1,1,0,0.3,0.3,140.00002,NaN,practic_1,NaN,NaN,0.0,4.0,30.0
1,0,19,2,1,1,0,0.4,0.4,50.634922,NaN,practic_1,NaN,NaN,0.0,4.0,30.0
1,0,19,1,1,1,0,0.4,0.4,50.634922,NaN,practic_1,NaN,NaN,0.0,4.0,30.0
1,0,19,4,1,1,0,0.8063492,0.8063492,158.73015,NaN,practic_1,NaN,NaN,0.0,4.0,30.0
1,0,19,3,1,1,0,0.4,0.4,141.26985,NaN,practic_1,NaN,NaN,0.0,4.0,30.0
1,0,19,2,1,1,0,0.1,0.1,50.0,NaN,practic_1,NaN,NaN,0.0,4.0,30.0
1,0,19,1,1,1,0,0.1,0.1,50.0,NaN,practic_1,NaN,NaN,0.0,4.0,30.0
1,0,19,4,1,1,0,0.8063492,0.8063492,198.73016,NaN,practic_1,NaN,NaN,0.0,4.0,30.0
1,0,19,3,1,1,0,0.1,0.1,60.000004,NaN,practic_1,NaN,NaN,0.0,4.0,30.0
1,0,19,2,1,1,0,0.2,0.2,70.634926,NaN,practic_1,NaN,NaN,0.0,4.0,30.0
1,0,19,1,1,1,0,0.2,0.2,70.634926,NaN,practic_1,NaN,NaN,0.0,4.0,30.0
1,0,19,4,1,1,0,0.8063492,0.8063492,178.73015,NaN,practic_1,NaN,NaN,0.0,4.0,30.0
1,0,19,3,1,1,0,0.2,0.2,100.0,NaN,practic_1,NaN,NaN,0.0,4.0,30.0
1,0,19,2,1,1,0,0.3,0.3,60.634922,NaN,practic_1,NaN,NaN,0.0,4.0,30.0
1,0,19,1,1,1,0,0.3,0.3,60.634922,NaN,practic_1,NaN,NaN,0.0,4.0,30.0
1,0,19,4,1,1,0,0.8063492,0.8063492,158.73015,NaN,practic_1,NaN,NaN,0.0,4.0,30.0
1,0,19,3,1,1,0,0.3,0.3,140.00002,NaN,practic_1,NaN,NaN,0.0,4.0,30.0
1,0,19,2,1,1,0,0.4,0.4,50.634922,NaN,practic_1,NaN,NaN,0.0,4.0,30.0
1,0,19,1,1,1,0,0.4,0.4,50.634922,NaN,practic_1,NaN,NaN,0.0,4.0,30.0
1,0,19,4,1,1,0,0.8063492,0.8063492,158.73015,NaN,practic_1,NaN,NaN,0.0,4.0,30.0
1,0,19,3,1,1,0,0.4,0.4,141.26985,NaN,practic_1,NaN,NaN,0.0,4.0,30.0
1,0,19,2,1,1,0,0.1,0.1,50.0,NaN,practic_1,NaN,NaN,0.0,4.0,30.0
1,0,19,1,1,1,0,0.1,0.1,50.0,NaN,practic_1,NaN,NaN,0.0,4.0,30.0
1,0,19,4,1,1,0,0.8063492,0.8063492,198.73016,NaN,practic_1,NaN,NaN,0.0,4.0,30.0
1,0,19,3,1,1,0,0.1,0.1,60.000004,NaN,practic_1,NaN,NaN,0.0,4.0,30.0
1,0,19,2,1,1,0,0.2,0.2,70.634926,NaN,practic_1,NaN,NaN,0.0,4.0,30.0
1,0,19,1,1,1,0,0.2,0.2,70.634926,NaN,practic_1,NaN,NaN,0.0,4.0,30.0
1,0,19,4,1,1,0,0.8063492,0.8063492,178.73015,NaN,practic_1,NaN,NaN,0.0,4.0,30.0
1,0,19,3,1,1,0,0.2,0.2,100.0,NaN,practic_1,NaN,NaN,0.0,4.0,30.0
1,0,19,2,1,1,0,0.3,0.3,60.634922,NaN,practic_1,NaN,NaN,0.0,4.0,30.0
1,0,19,1,1,1,0,0.3,0.3,60.634922,NaN,practic_1,NaN,NaN,0.0,4.0,30.0
1,0,19,4,1,1,0,0.8063492,0.8063492,158.73015,NaN,practic_1,NaN,NaN,0.0,4.0,30.0
1,0,19,3,1,1,0,0.3,0.3,140.00002,NaN,practic_1,NaN,NaN,0.0,4.0,30.0
1,0,19,2,1,1,0,0.4,0.4,50.634922,NaN,practic_1,NaN,NaN,0.0,4.0,30.0
1,0,19,1,1,1,0,0.4,0.4,50.634922,NaN,practic_1,NaN,NaN,0.0,4.0,30.0
1,0,19,4,1,1,0,0.8063492,0.8063492,158.73015,NaN,practic_1,NaN,NaN,0.0,4.0,30.0
1,0,19,3,1,1,0,0.4,0.4,141.26985,NaN,practic_1,NaN,NaN,0.0,4.0,30.0
1,0,19,2,1,1,0,0.1,0.1,50.0,NaN,practic_1,NaN,NaN,0.0,4.0,30.0
1,0,19,1,1,1,0,0.1,0.1,50.0,NaN,practic_1,NaN,NaN,0.0,4.0,30.0
1,0,18,4,1,1,0,0.8063492,0.8063492,198.73016,NaN,practic_1,NaN,NaN,0.0,4.0,30.0
1,0,18,3,1,1,0,0.1,0.1,60.000004,NaN,practic_1,NaN,NaN,0.0,4.0,30.0
1,0,18,2,1,1,0,0.2,0.2,70.634926,NaN,practic_1,NaN,NaN,0.0,4.0,30.0
1,0,18,1,1,1,0,0.2,0.2,70.634926,NaN,practic_1,NaN,NaN,0.0,4.0,30.0
1,0,18,4,1,1,0,0.8063492,0.8063492,178.73015,NaN,practic_1,NaN,NaN,0.0,4.0,30.0
1,0,18,3,1,1,0,0.2,0.2,100.0,NaN,practic_1,NaN,NaN,0.0,4.0,30.0
1,0,18,2,1,1,0,0.3,0.3,60.634922,NaN,practic_1,NaN,NaN,0.0,4.0,30.0
1,0,18,1,1,1,0,0.3,0.3,60.634922,NaN,practic_1,NaN,NaN,0.0,4.0,30.0
1,0,18,1,1,1,0,0.4,0.4,50.634922,NaN,practic_1,NaN,NaN,0.0,4.0,30.0
1,0,18,4,1,1,0,0.8063492,0.8063492,158.73015,NaN,practic_1,NaN,NaN,0.0,4.0,30.0
1,0,18,3,1,1,0,0.3,0.3,140.00002,NaN,practic_1,NaN,NaN,0.0,4.0,30.0
1,0,18,2,1,1,0,0.4,0.4,50.634922,NaN,practic_1,NaN,NaN,0.0,4.0,30.0
1,0,18,1,1,1,0,0.1,0.1,50.0,NaN,practic_1,NaN,NaN,0.0,4.0,30.0
1,0,18,4,1,1,0,0.8063492,0.8063492,158.73015,NaN,practic_1,NaN,NaN,0.0,4.0,30.0
1,0,18,3,1,1,0,0.4,0.4,141.26985,NaN,practic_1,NaN,NaN,0.0,4.0,30.0
1,0,18,2,1,1,0,0.1,0.1,50.0,NaN,practic_1,NaN,NaN,0.0,4.0,30.0
1,0,18,4,1,1,0,0.8063492,0.8063492,198.73016,NaN,practic_1,NaN,NaN,0.0,4.0,30.0
1,0,18,3,1,1,0,0.1,0.1,60.000004,NaN,practic_1,NaN,NaN,0.0,4.0,30.0
1,0,18,2,1,1,0,0.2,0.2,70.634926,NaN,practic_1,NaN,NaN,0.0,4.0,30.0
1,0,18,1,1,1,0,0.2,0.2,70.634926,NaN,practic_1,NaN,NaN,0.0,4.0,30.0
1,0,18,4,1,1,0,0.8063492,0.8063492,178.73015,NaN,practic_1,NaN,NaN,0.0,4.0,30.0
1,0,18,3,1,1,0,0.2,0.2,100.0,NaN,practic_1,NaN,NaN,0.0,4.0,30.0
1,0,18,2,1,1,0,0.3,0.3,60.634922,NaN,practic_1,NaN,NaN,0.0,4.0,30.0
1,0,18,1,1,1,0,0.3,0.3,60.634922,NaN,practic_1,NaN,NaN,0.0,4.0,30.0
1,0,18,1,1,1,0,0.4,0.4,50.634922,NaN,practic_1,NaN,NaN,0.0,4.0,30.0
1,0,18,4,1,1,0,0.8063492,0.8063492,158.73015,NaN,practic_1,NaN,NaN,0.0,4.0,30.0
1,0,18,3,1,1,0,0.3,0.3,140.00002,NaN,practic_1,NaN,NaN,0.0,4.0,30.0
1,0,18,2,1,1,0,0.4,0.4,50.634922,NaN,practic_1,NaN,NaN,0.0,4.0,30.0
1,0,18,4,1,1,0,0.8063492,0.8063492,158.73015,NaN,practic_1,NaN,NaN,0.0,4.0,30.0
1,0,18,3,1,1,0,0.4,0.4,141.26985,NaN,practic_1,NaN,NaN,0.0,4.0,30.0
1,0,18,2,1,1,0,0.1,0.1,50.0,NaN,practic_1,NaN,NaN,0.0,4.0,30.0
1,0,18,1,1,1,0,0.1,0.1,50.0,NaN,practic_1,NaN,NaN,0.0,4.0,30.0
1,0,18,4,1,1,0,0.8063492,0.8063492,198.73016,NaN,practic_1,NaN,NaN,0.0,4.0,30.0
1,0,18,3,1,1,0,0.1,0.1,60.000004,NaN,practic_1,NaN,NaN,0.0,4.0,30.0
1,0,18,2,1,1,0,0.2,0.2,70.634926,NaN,practic_1,NaN,NaN,0.0,4.0,30.0
1,0,18,1,1,1,0,0.2,0.2,70.634926,NaN,practic_1,NaN,NaN,0.0,4.0,30.0
1,0,18,4,1,1,0,0.8063492,0.8063492,178.73015,NaN,practic_1,NaN,NaN,0.0,4.0,30.0
1,0,18,3,1,1,0,0.2,0.2,100.0,NaN,practic_1,NaN,NaN,0.0,4.0,30.0
1,0,18,2,1,1,0,0.3,0.3,60.634922,NaN,practic_1,NaN,NaN,0.0,4.0,30.0
1,0,18,1,1,1,0,0.3,0.3,60.634922,NaN,practic_1,NaN,NaN,0.0,4.0,30.0
1,0,17,4,1,1,0,0.8063492,0.8063492,158.73015,NaN,practic_1,NaN,NaN,0.0,4.0,30.0
1,0,17,3,1,1,0,0.3,0.3,140.00002,NaN,practic_1,NaN,NaN,0.0,4.0,30.0
1,0,17,2,1,1,0,0.4,0.4,50.634922,NaN,practic_1,NaN,NaN,0.0,4.0,30.0
1,0,17,1,1,1,0,0.4,0.4,50.634922,NaN,practic_1,NaN,NaN,0.0,4.0,30.0
1,0,17,1,1,1,0,0.1,0.1,50.0,NaN,practic_1,NaN,NaN,0.0,4.0,30.0
1,0,17,4,1,1,0,0.8063492,0.8063492,158.73015,NaN,practic_1,NaN,NaN,0.0,4.0,30.0
1,0,17,3,1,1,0,0.4,0.4,141.26985,NaN,practic_1,NaN,NaN,0.0,4.0,30.0
1,0,17,2,1,1,0,0.1,0.1,50.0,NaN,practic_1,NaN,NaN,0.0,4.0,30.0
1,0,17,4,1,1,0,0.8063492,0.8063492,198.73016,NaN,practic_1,NaN,NaN,0.0,4.0,30.0
1,0,17,3,1,1,0,0.1,0.1,60.000004,NaN,practic_1,NaN,NaN,0.0,4.0,30.0
1,0,17,2,1,1,0,0.2,0.2,70.634926,NaN,practic_1,NaN,NaN,0.0,4.0,30.0
1,0,17,1,1,1,0,0.2,0.2,70.634926,NaN,practic_1,NaN,NaN,0.0,4.0,30.0
1,0,17,4,1,1,0,0.8063492,0.8063492,178.73015,NaN,practic_1,NaN,NaN,0.0,4.0,30.0
1,0,17,3,1,1,0,0.2,0.2,100.0,NaN,practic_1,NaN,NaN,0.0,4.0,30.0
1,0,17,2,1,1,0,0.3,0.3,60.634922,NaN,practic_1,NaN,NaN,0.0,4.0,30.0
1,0,17,1,1,1,0,0.3,0.3,60.634922,NaN,practic_1,NaN,NaN,0.0,4.0,30.0
1,0,17,4,1,1,0,0.8063492,0.8063492,158.73015,NaN,practic_1,NaN,NaN,0.0,4.0,30.0
1,0,17,3,1,1,0,0.3,0.3,140.00002,NaN,practic_1,NaN,NaN,0.0,4.0,30.0
1,0,17,2,1,1,0,0.4,0.4,50.634922,NaN,practic_1,NaN,NaN,0.0,4.0,30.0
1,0,17,1,1,1,0,0.4,0.4,50.634922,NaN,practic_1,NaN,NaN,0.0,4.0,30.0
1,0,17,4,1,1,0,0.8063492,0.8063492,158.73015,NaN,practic_1,NaN,NaN,0.0,4.0,30.0
1,0,17,3,1,1,0,0.4,0.4,141.26985,NaN,practic_1,NaN,NaN,0.0,4.0,30.0
1,0,17,2,1,1,0,0.1,0.1,50.0,NaN,practic_1,NaN,NaN,0.0,4.0,30.0
1,0,17,1,1,1,0,0.1,0.1,50.0,NaN,practic_1,NaN,NaN,0.0,4.0,30.0
1,0,17,4,1,1,0,0.8063492,0.8063492,198.73016,NaN,practic_1,NaN,NaN,0.0,4.0,30.0
1,0,17,3,1,1,0,0.1,0.1,60.000004,NaN,practic_1,NaN,NaN,0.0,4.0,30.0
1,0,17,2,1,1,0,0.2,0.2,70.634926,NaN,practic_1,NaN,NaN,0.0,4.0,30.0
1,0,17,1,1,1,0,0.2,0.2,70.634926,NaN,practic_1,NaN,NaN,0.0,4.0,30.0
1,0,17,4,1,1,0,0.8063492,0.8063492,178.73015,NaN,practic_1,NaN,NaN,0.0,4.0,30.0
1,0,17,3,1,1,0,0.2,0.2,100.0,NaN,practic_1,NaN,NaN,0.0,4.0,30.0
1,0,17,2,1,1,0,0.3,0.3,60.634922,NaN,practic_1,NaN,NaN,0.0,4.0,30.0
1,0,17,1,1,1,0,0.3,0.3,60.634922,NaN,practic_1,NaN,NaN,0.0,4.0,30.0
1,0,17,4,1,1,0,0.8063492,0.8063492,158.73015,NaN,practic_1,NaN,NaN,0.0,4.0,30.0
1,0,17,3,1,1,0,0.3,0.3,140.00002,NaN,practic_1,NaN,NaN,0.0,4.0,30.0
1,0,17,2,1,1,0,0.4,0.4,50.634922,NaN,practic_1,NaN,NaN,0.0,4.0,30.0
1,0,17,1,1,1,0,0.4,0.4,50.634922,NaN,practic_1,NaN,NaN,0.0,4.0,30.0
1,0,17,4,1,1,0,0.8063492,0.8063492,158.73015,NaN,practic_1,NaN,NaN,0.0,4.0,30.0
1,0,17,3,1,1,0,0.4,0.4,141.26985,NaN,practic_1,NaN,NaN,0.0,4.0,30.0
1,0,17,2,1,1,0,0.1,0.1,50.0,NaN,practic_1,NaN,NaN,0.0,4.0,30.0
1,0,17,1,1,1,0,0.1,0.1,50.0,NaN,practic_1,NaN,NaN,0.0,4.0,30.0
1,0,16,4,1,1,0,0.8063492,0.8063492,198.73016,NaN,practic_1,NaN,NaN,0.0,4.0,30.0
1,0,16,3,1,1,0,0.1,0.1,60.000004,NaN,practic_1,NaN,NaN,0.0,4.0,30.0
1,0,16,2,1,1,0,0.2,0.2,70.634926,NaN,practic_1,NaN,NaN,0.0,4.0,30.0
1,0,16,1,1,1,0,0.2,0.2,70.634926,NaN,practic_1,NaN,NaN,0.0,4.0,30.0
1,0,16,4,1,1,0,0.8063492,0.8063492,178.73015,NaN,practic_1,NaN,NaN,0.0,4.0,30.0
1,0,16,3,1,1,0,0.2,0.2,100.0,NaN,practic_1,NaN,NaN,0.0,4.0,30.0
1,0,16,2,1,1,0,0.3,0.3,60.634922,NaN,practic_1,NaN,NaN,0.0,4.0,30.0
1,0,16,1,1,1,0,0.3,0.3,60.634922,NaN,practic_1,NaN,NaN,0.0,4.0,30.0
1,0,16,4,1,1,0,0.8063492,0.8063492,158.73015,NaN,practic_1,NaN,NaN,0.0,4.0,30.0
1,0,16,3,1,1,0,0.3,0.3,140.00002,NaN,practic_1,NaN,NaN,0.0,4.0,30.0
1,0,16,2,1,1,0,0.4,0.4,50.634922,NaN,practic_1,NaN,NaN,0.0,4.0,30.0
1,0,16,1,1,1,0,0.4,0.4,50.634922,NaN,practic_1,NaN,NaN,0.0,4.0,30.0
1,0,16,4,1,1,0,0.8063492,0.8063492,158.73015,NaN,practic_1,NaN,NaN,0.0,4.0,30.0
1,0,16,3,1,1,0,0.4,0.4,141.26985,NaN,practic_1,NaN,NaN,0.0,4.0,30.0
1,0,16,2,1,1,0,0.1,0.1,50.0,NaN,practic_1,NaN,NaN,0.0,4.0,30.0
1,0,16,1,1,1,0,0.1,0.1,50.0,NaN,practic_1,NaN,NaN,0.0,4.0,30.0
1,0,16,4,1,1,0,0.8063492,0.8063492,198.73016,NaN,practic_1,NaN,NaN,0.0,4.0,30.0
1,0,16,3,1,1,0,0.1,0.1,60.000004,NaN,practic_1,NaN,NaN,0.0,4.0,30.0
1,0,16,2,1,1,0,0.2,0.2,70.634926,NaN,practic_1,NaN,NaN,0.0,4.0,30.0
1,0,16,1,1,1,0,0.2,0.2,70.634926,NaN,practic_1,NaN,NaN,0.0,4.0,30.0
1,0,16,4,1,1,0,0.8063492,0.8063492,178.73015,NaN,practic_1,NaN,NaN,0.0,4.0,30.0
1,0,16,3,1,1,0,0.2,0.2,100.0,NaN,practic_1,NaN,NaN,0.0,4.0,30.0
1,0,16,2,1,1,0,0.3,0.3,60.634922,NaN,practic_1,NaN,NaN,0.0,4.0,30.0
1,0,16,1,1,1,0,0.3,0.3,60.634922,NaN,practic_1,NaN,NaN,0.0,4.0,30.0
1,0,16,4,1,1,0,0.8063492,0.8063492,158.73015,NaN,practic_1,NaN,NaN,0.0,4.0,30.0
1,0,16,3,1,1,0,0.3,0.3,140.00002,NaN,practic_1,NaN,NaN,0.0,4.0,30.0
1,0,16,2,1,1,0,0.4,0.4,50.634922,NaN,practic_1,NaN,NaN,0.0,4.0,30.0
1,0,16,1,1,1,0,0.4,0.4,50.634922,NaN,practic_1,NaN,NaN,0.0,4.0,30.0
1,0,16,4,1,1,0,0.8063492,0.8063492,158.73015,NaN,practic_1,NaN,NaN,0.0,4.0,30.0
1,0,16,3,1,1,0,0.4,0.4,141.26985,NaN,practic_1,NaN,NaN,0.0,4.0,30.0
1,0,16,2,1,1,0,0.1,0.1,50.0,NaN,practic_1,NaN,NaN,0.0,4.0,30.0
1,0,16,1,1,1,0,0.1,0.1,50.0,NaN,practic_1,NaN,NaN,0.0,4.0,30.0
1,0,16,4,1,1,0,0.8063492,0.8063492,198.73016,NaN,practic_1,NaN,NaN,0.0,4.0,30.0
1,0,16,3,1,1,0,0.1,0.1,60.000004,NaN,practic_1,NaN,NaN,0.0,4.0,30.0
1,0,16,2,1,1,0,0.2,0.2,70.634926,NaN,practic_1,NaN,NaN,0.0,4.0,30.0
1,0,16,1,1,1,0,0.2,0.2,70.634926,NaN,practic_1,NaN,NaN,0.0,4.0,30.0
1,0,16,4,1,1,0,0.8063492,0.8063492,178.73015,NaN,practic_1,NaN,NaN,0.0,4.0,30.0
1,0,16,3,1,1,0,0.2,0.2,100.0,NaN,practic_1,NaN,NaN,0.0,4.0,30.0
1,0,16,2,1,1,0,0.3,0.3,60.634922,NaN,practic_1,NaN,NaN,0.0,4.0,30.0
1,0,16,1,1,1,0,0.3,0.3,60.634922,NaN,practic_1,NaN,NaN,0.0,4.0,30.0
1,0,15,4,1,1,0,0.8063492,0.8063492,158.73015,NaN,practic_1,NaN,NaN,0.0,4.0,30.0
1,0,15,3,1,1,0,0.3,0.3,140.00002,NaN,practic_1,NaN,NaN,0.0,4.0,30.0
1,0,15,2,1,1,0,0.4,0.4,50.634922,NaN,practic_1,NaN,NaN,0.0,4.0,30.0
1,0,15,1,1,1,0,0.4,0.4,50.634922,NaN,practic_1,NaN,NaN,0.0,4.0,30.0
1,0,15,4,1,1,0,0.8063492,0.8063492,158.73015,NaN,practic_1,NaN,NaN,0.0,4.0,30.0
1,0,15,3,1,1,0,0.4,0.4,141.26985,NaN,practic_1,NaN,NaN,0.0,4.0,30.0
1,0,15,2,1,1,0,0.1,0.1,50.0,NaN,practic_1,NaN,NaN,0.0,4.0,30.0
1,0,15,1,1,1,0,0.1,0.1,50.0,NaN,practic_1,NaN,NaN,0.0,4.0,30.0
1,0,15,4,1,1,0,0.8063492,0.8063492,198.73016,NaN,practic_1,NaN,NaN,0.0,4.0,30.0
1,0,15,3,1,1,0,0.1,0.1,60.000004,NaN,practic_1,NaN,NaN,0.0,4.0,30.0
1,0,15,2,1,1,0,0.2,0.2,70.634926,NaN,practic_1,NaN,NaN,0.0,4.0,30.0
1,0,15,1,1,1,0,0.2,0.2,70.634926,NaN,practic_1,NaN,NaN,0.0,4.0,30.0
1,0,15,4,1,1,0,0.8063492,0.8063492,178.73015,NaN,practic_1,NaN,NaN,0.0,4.0,30.0
1,0,15,3,1,1,0,0.2,0.2,100.0,NaN,practic_1,NaN,NaN,0.0,4.0,30.0
1,0,15,2,1,1,0,0.3,0.3,60.634922,NaN,practic_1,NaN,NaN,0.0,4.0,30.0
1,0,15,1,1,1,0,0.3,0.3,60.634922,NaN,practic_1,NaN,NaN,0.0,4.0,30.0
1,0,15,4,1,1,0,0.8063492,0.8063492,158.73015,NaN,practic_1,NaN,NaN,0.0,4.0,30.0
1,0,15,3,1,1,0,0.3,0.3,140.00002,NaN,practic_1,NaN,NaN,0.0,4.0,30.0
1,0,15,2,1,1,0,0.4,0.4,50.634922,NaN,practic_1,NaN,NaN,0.0,4.0,30.0
1,0,15,1,1,1,0,0.4,0.4,50.634922,NaN,practic_1,NaN,NaN,0.0,4.0,30.0
1,0,15,4,1,1,0,0.8063492,0.8063492,158.73015,NaN,practic_1,NaN,NaN,0.0,4.0,30.0
1,0,15,3,1,1,0,0.4,0.4,141.26985,NaN,practic_1,NaN,NaN,0.0,4.0,30.0
1,0,15,2,1,1,0,0.1,0.1,50.0,NaN,practic_1,NaN,NaN,0.0,4.0,30.0
1,0,15,1,1,1,0,0.1,0.1,50.0,NaN,practic_1,NaN,NaN,0.0,4.0,30.0
1,0,15,4,1,1,0,0.8063492,0.8063492,198.73016,NaN,practic_1,NaN,NaN,0.0,4.0,30.0
1,0,15,3,1,1,0,0.1,0.1,60.000004,NaN,practic_1,NaN,NaN,0.0,4.0,30.0
1,0,15,2,1,1,0,0.2,0.2,70.634926,NaN,practic_1,NaN,NaN,0.0,4.0,30.0
1,0,15,1,1,1,0,0.2,0.2,70.634926,NaN,practic_1,NaN,NaN,0.0,4.0,30.0
1,0,15,4,1,1,0,0.8063492,0.8063492,178.73015,NaN,practic_1,NaN,NaN,0.0,4.0,30.0
1,0,15,3,1,1,0,0.2,0.2,100.0,NaN,practic_1,NaN,NaN,0.0,4.0,30.0
1,0,15,2,1,1,0,0.3,0.3,60.634922,NaN,practic_1,NaN,NaN,0.0,4.0,30.0
1,0,15,1,1,1,0,0.3,0.3,60.634922,NaN,practic_1,NaN,NaN,0.0,4.0,30.0
1,0,15,1,1,1,0,0.4,0.4,50.634922,NaN,practic_1,NaN,NaN,0.0,4.0,30.0
1,0,15,4,1,1,0,0.8063492,0.8063492,158.73015,NaN,practic_1,NaN,NaN,0.0,4.0,30.0
1,0,15,3,1,1,0,0.3,0.3,140.00002,NaN,practic_1,NaN,NaN,0.0,4.0,30.0
1,0,15,2,1,1,0,0.4,0.4,50.634922,NaN,practic_1,NaN,NaN,0.0,4.0,30.0
1,0,15,4,1,1,0,0.8063492,0.8063492,158.73015,NaN,practic_1,NaN,NaN,0.0,4.0,30.0
1,0,15,3,1,1,0,0.4,0.4,141.26985,NaN,practic_1,NaN,NaN,0.0,4.0,30.0
1,0,15,2,1,1,0,0.1,0.1,50.0,NaN,practic_1,NaN,NaN,0.0,4.0,30.0
1,0,15,1,1,1,0,0.1,0.1,50.0,NaN,practic_1,NaN,NaN,0.0,4.0,30.0
1,0,14,4,1,1,0,0.8063492,0.8063492,198.73016,NaN,practic_1,NaN,NaN,0.0,4.0,30.0
1,0,14,3,1,1,0,0.1,0.1,60.000004,NaN,practic_1,NaN,NaN,0.0,4.0,30.0
1,0,14,2,1,1,0,0.2,0.2,70.634926,NaN,practic_1,NaN,NaN,0.0,4.0,30.0
1,0,14,1,1,1,0,0.2,0.2,70.634926,NaN,practic_1,NaN,NaN,0.0,4.0,30.0
1,0,14,4,1,1,0,0.8063492,0.8063492,178.73015,NaN,practic_1,NaN,NaN,0.0,4.0,30.0
1,0,14,3,1,1,0,0.2,0.2,100.0,NaN,practic_1,NaN,NaN,0.0,4.0,30.0
1,0,14,2,1,1,0,0.3,0.3,60.634922,NaN,practic_1,NaN,NaN,0.0,4.0,30.0
1,0,14,1,1,1,0,0.3,0.3,60.634922,NaN,practic_1,NaN,NaN,0.0,4.0,30.0
1,0,14,4,1,1,0,0.8063492,0.8063492,158.73015,NaN,practic_1,NaN,NaN,0.0,4.0,30.0
1,0,14,3,1,1,0,0.3,0.3,140.00002,NaN,practic_1,NaN,NaN,0.0,4.0,30.0
1,0,14,2,1,1,0,0.4,0.4,50.634922,NaN,practic_1,NaN,NaN,0.0,4.0,30.0
1,0,14,1,1,1,0,0.4,0.4,50.634922,NaN,practic_1,NaN,NaN,0.0,4.0,30.0
1,0,14,4,1,1,0,0.8063492,0.8063492,158.73015,NaN,practic_1,NaN,NaN,0.0,4.0,30.0
1,0,14,3,1,1,0,0.4,0.4,141.26985,NaN,practic_1,NaN,NaN,0.0,4.0,30.0
1,0,14,2,1,1,0,0.1,0.1,50.0,NaN,practic_1,NaN,NaN,0.0,4.0,30.0
1,0,14,1,1,1,0,0.1,0.1,50.0,NaN,practic_1,NaN,NaN,0.0,4.0,30.0
1,0,14,4,1,1,0,0.8063492,0.8063492,198.73016,NaN,practic_1,NaN,NaN,0.0,4.0,30.0
1,0,14,3,1,1,0,0.1,0.1,60.000004,NaN,practic_1,NaN,NaN,0.0,4.0,30.0
1,0,14,2,1,1,0,0.2,0.2,70.634926,NaN,practic_1,NaN,NaN,0.0,4.0,30.0
1,0,14,1,1,1,0,0.2,0.2,70.634926,NaN,practic_1,NaN,NaN,0.0,4.0,30.0
1,0,14,4,1,1,0,0.9412698,0.9412698,151.74603,NaN,practic_1,NaN,NaN,0.0,4.0,30.0
1,0,14,3,1,1,0,0.2,0.2,100.0,NaN,practic_1,NaN,NaN,0.0,4.0,30.0
1,0,14,2,1,1,0,0.3,0.3,74.12698,NaN,practic_1,NaN,NaN,0.0,4.0,30.0
1,0,14,1,1,1,0,0.3,0.3,74.12698,NaN,practic_1,NaN,NaN,0.0,4.0,30.0
1,0,14,4,1,1,0,0.96031743,0.96031743,127.93651,NaN,practic_1,NaN,NaN,0.0,4.0,30.0
1,0,14,3,1,1,0,0.3,0.3,140.00002,NaN,practic_1,NaN,NaN,0.0,4.0,30.0
1,0,14,2,1,1,0,0.4,0.4,66.03174,NaN,practic_1,NaN,NaN,0.0,4.0,30.0
1,0,14,1,1,1,0,0.4,0.4,66.03174,NaN,practic_1,NaN,NaN,0.0,4.0,30.0
1,0,14,4,1,1,0,0.97619045,0.97619045,124.76192,NaN,practic_1,NaN,NaN,0.0,4.0,30.0
1,0,14,3,1,1,0,0.4,0.4,175.2381,NaN,practic_1,NaN,NaN,0.0,4.0,30.0
1,0,14,2,1,1,0,0.1,0.1,50.0,NaN,practic_1,NaN,NaN,0.0,4.0,30.0
1,0,14,1,1,1,0,0.1,0.1,50.0,NaN,practic_1,NaN,NaN,0.0,4.0,30.0
1,0,14,4,1,1,0,0.97936505,0.97936505,164.127,NaN,practic_1,NaN,NaN,0.0,4.0,30.0
1,0,14,3,1,1,0,0.1,0.1,60.000004,NaN,practic_1,NaN,NaN,0.0,4.0,30.0
1,0,14,2,1,1,0,0.2,0.2,87.93651,NaN,practic_1,NaN,NaN,0.0,4.0,30.0
1,0,14,1,1,1,0,0.2,0.2,87.93651,NaN,practic_1,NaN,NaN,0.0,4.0,30.0
1,0,14,4,1,1,0,0.97936505,0.97936505,144.12698,NaN,practic_1,NaN,NaN,0.0,4.0,30.0
1,0,14,3,1,1,0,0.2,0.2,100.0,NaN,practic_1,NaN,NaN,0.0,4.0,30.0
1,0,14,2,1,1,0,0.3,0.3,77.93651,NaN,practic_1,NaN,NaN,0.0,4.0,30.0
1,0,14,1,1,1,0,0.3,0.3,77.93651,NaN,practic_1,NaN,NaN,0.0,4.0,30.0
1,0,13,4,1,1,0,0.97936505,0.97936505,124.12698,NaN,practic_1,NaN,NaN,0.0,4.0,30.0
1,0,13,3,1,1,0,0.3,0.3,140.00002,NaN,practic_1,NaN,NaN,0.0,4.0,30.0
1,0,13,2,1,1,0,0.4,0.4,67.9365,NaN,practic_1,NaN,NaN,0.0,4.0,30.0
1,0,13,1,1,1,0,0.4,0.4,67.9365,NaN,practic_1,NaN,NaN,0.0,4.0,30.0
1,0,13,4,1,1,0,0.93968254,0.93968254,132.06348,NaN,practic_1,NaN,NaN,0.0,4.0,30.0
1,0,13,3,1,1,0,0.4,0.4,167.93651,NaN,practic_1,NaN,NaN,0.0,4.0,30.0
1,0,13,2,1,1,0,0.1,0.1,50.0,NaN,practic_1,NaN,NaN,0.0,4.0,30.0
1,0,13,1,1,1,0,0.1,0.1,50.0,NaN,practic_1,NaN,NaN,0.0,4.0,30.0
1,0,13,4,1,1,0,0.88730156,0.88730156,182.53969,NaN,practic_1,NaN,NaN,0.0,4.0,30.0
1,0,13,3,1,1,0,0.1,0.1,60.000004,NaN,practic_1,NaN,NaN,0.0,4.0,30.0
1,0,13,2,1,1,0,0.2,0.2,78.73016,NaN,practic_1,NaN,NaN,0.0,4.0,30.0
1,0,13,1,1,1,0,0.2,0.2,78.73016,NaN,practic_1,NaN,NaN,0.0,4.0,30.0
1,0,13,4,1,1,0,0.8857143,0.8857143,162.85713,NaN,practic_1,NaN,NaN,0.0,4.0,30.0
1,0,13,3,1,1,0,0.2,0.2,100.0,NaN,practic_1,NaN,NaN,0.0,4.0,30.0
1,0,13,2,1,1,0,0.3,0.3,68.571434,NaN,practic_1,NaN,NaN,0.0,4.0,30.0
1,0,13,1,1,1,0,0.3,0.3,68.571434,NaN,practic_1,NaN,NaN,0.0,4.0,30.0
1,0,13,4,1,1,0,0.8730159,0.8730159,145.39684,NaN,practic_1,NaN,NaN,0.0,4.0,30.0
1,0,13,3,1,1,0,0.3,0.3,140.00002,NaN,practic_1,NaN,NaN,0.0,4.0,30.0
1,0,13,2,1,1,0,0.4,0.4,57.301586,NaN,practic_1,NaN,NaN,0.0,4.0,30.0
1,0,13,1,1,1,0,0.4,0.4,57.301586,NaN,practic_1,NaN,NaN,0.0,4.0,30.0
1,0,13,4,1,1,0,0.8460317,0.8460317,150.79364,NaN,practic_1,NaN,NaN,0.0,4.0,30.0
1,0,13,3,1,1,0,0.4,0.4,149.20636,NaN,practic_1,NaN,NaN,0.0,4.0,30.0
1,0,13,2,1,1,0,0.1,0.1,50.0,NaN,practic_1,NaN,NaN,0.0,4.0,30.0
1,0,13,1,1,1,0,0.1,0.1,50.0,NaN,practic_1,NaN,NaN,0.0,4.0,30.0
1,0,13,1,1,1,0,0.2,0.2,73.492065,NaN,practic_1,NaN,NaN,0.0,4.0,30.0
1,0,13,4,1,1,0,0.83492064,0.83492064,193.01587,NaN,practic_1,NaN,NaN,0.0,4.0,30.0
1,0,13,3,1,1,0,0.1,0.1,60.000004,NaN,practic_1,NaN,NaN,0.0,4.0,30.0
1,0,13,2,1,1,0,0.2,0.2,73.492065,NaN,practic_1,NaN,NaN,0.0,4.0,30.0
1,0,13,4,1,1,0,0.8206349,0.8095238,175.87302,NaN,practic_1,NaN,NaN,0.0,4.0,30.0
1,0,13,3,1,1,0,0.2,0.2,100.0,NaN,practic_1,NaN,NaN,0.0,4.0,30.0
1,0,13,2,1,1,0,0.3,0.3,62.06349,NaN,practic_1,NaN,NaN,0.0,4.0,30.0
1,0,13,1,1,1,0,0.3,0.3,62.06349,NaN,practic_1,NaN,NaN,0.0,4.0,30.0
1,0,13,4,1,1,0,0.77619046,0.77619046,164.7619,NaN,practic_1,NaN,NaN,0.0,4.0,30.0
1,0,13,3,1,1,0,0.3,0.3,140.00002,NaN,practic_1,NaN,NaN,0.0,4.0,30.0
1,0,13,2,1,1,0,0.4,0.4,47.619045,NaN,practic_1,NaN,NaN,0.0,4.0,30.0
1,0,13,1,1,1,0,0.4,0.4,47.619045,NaN,practic_1,NaN,NaN,0.0,4.0,30.0
1,0,13,4,1,1,0,0.76349205,0.76349205,167.30159,NaN,practic_1,NaN,NaN,0.0,4.0,30.0
1,0,13,3,1,1,0,0.4,0.4,132.69841,NaN,practic_1,NaN,NaN,0.0,4.0,30.0
1,0,13,2,1,1,0,0.1,0.1,50.0,NaN,practic_1,NaN,NaN,0.0,4.0,30.0
1,0,13,1,1,1,0,0.1,0.1,50.0,NaN,practic_1,NaN,NaN,0.0,4.0,30.0
1,0,12,4,1,1,0,0.74920636,0.74920636,210.15872,NaN,practic_1,NaN,NaN,0.0,4.0,30.0
1,0,12,3,1,1,0,0.1,0.1,60.000004,NaN,practic_1,NaN,NaN,0.0,4.0,30.0
1,0,12,2,1,1,0,0.2,0.2,64.92064,NaN,practic_1,NaN,NaN,0.0,4.0,30.0
1,0,12,1,1,1,0,0.2,0.2,64.92064,NaN,practic_1,NaN,NaN,0.0,4.0,30.0
1,0,12,4,1,1,0,0.731746,0.731746,193.65079,NaN,practic_1,NaN,NaN,0.0,4.0,30.0
1,0,12,3,1,1,0,0.2,0.2,100.0,NaN,practic_1,NaN,NaN,0.0,4.0,30.0
1,0,12,2,1,1,0,0.3,0.3,53.174603,NaN,practic_1,NaN,NaN,0.0,4.0,30.0
1,0,12,1,1,1,0,0.3,0.3,53.174603,NaN,practic_1,NaN,NaN,0.0,4.0,30.0
1,0,12,4,1,1,0,0.71428573,0.71428573,177.14285,NaN,practic_1,NaN,NaN,0.0,4.0,30.0
1,0,12,3,1,1,0,0.3,0.3,140.00002,NaN,practic_1,NaN,NaN,0.0,4.0,30.0
1,0,12,2,1,1,0,0.4,0.4,41.428574,NaN,practic_1,NaN,NaN,0.0,4.0,30.0
1,0,12,1,1,1,0,0.4,0.4,41.428574,NaN,practic_1,NaN,NaN,0.0,4.0,30.0
1,0,12,4,1,1,0,0.7063492,0.7063492,178.73015,NaN,practic_1,NaN,NaN,0.0,4.0,30.0
1,0,12,3,1,1,0,0.4,0.4,121.269844,NaN,practic_1,NaN,NaN,0.0,4.0,30.0
1,0,12,2,1,1,0,0.1,0.1,50.0,NaN,practic_1,NaN,NaN,0.0,4.0,30.0
1,0,12,1,1,1,0,0.1,0.1,50.0,NaN,practic_1,NaN,NaN,0.0,4.0,30.0
1,0,12,4,1,1,0,0.7031746,0.7031746,219.36507,NaN,practic_1,NaN,NaN,0.0,4.0,30.0
1,0,12,3,1,1,0,0.1,0.1,60.000004,NaN,practic_1,NaN,NaN,0.0,4.0,30.0
1,0,12,2,1,1,0,0.2,0.2,60.317463,NaN,practic_1,NaN,NaN,0.0,4.0,30.0
1,0,12,1,1,1,0,0.2,0.2,60.317463,NaN,practic_1,NaN,NaN,0.0,4.0,30.0
1,0,12,4,1,1,0,0.7047619,0.7047619,199.0476,NaN,practic_1,NaN,NaN,0.0,4.0,30.0
1,0,12,3,1,1,0,0.2,0.2,100.0,NaN,practic_1,NaN,NaN,0.0,4.0,30.0
1,0,12,2,1,1,0,0.3,0.3,50.476192,NaN,practic_1,NaN,NaN,0.0,4.0,30.0
1,0,12,1,1,1,0,0.3,0.3,50.476192,NaN,practic_1,NaN,NaN,0.0,4.0,30.0
1,0,12,4,1,1,0,0.68095237,0.68095237,183.80952,NaN,practic_1,NaN,NaN,0.0,4.0,30.0
1,0,12,3,1,1,0,0.3,0.3,140.00002,NaN,practic_1,NaN,NaN,0.0,4.0,30.0
1,0,12,2,1,1,0,0.4,0.4,38.095238,NaN,practic_1,NaN,NaN,0.0,4.0,30.0
1,0,12,1,1,1,0,0.4,0.4,38.095238,NaN,practic_1,NaN,NaN,0.0,4.0,30.0
1,0,12,1,1,1,0,0.1,0.1,50.0,NaN,practic_1,NaN,NaN,0.0,4.0,30.0
1,0,12,4,1,1,0,0.66825396,0.66825396,186.3492,NaN,practic_1,NaN,NaN,0.0,4.0,30.0
1,0,12,3,1,1,0,0.4,0.4,113.6508,NaN,practic_1,NaN,NaN,0.0,4.0,30.0
1,0,12,2,1,1,0,0.1,0.1,50.0,NaN,practic_1,NaN,NaN,0.0,4.0,30.0
1,0,12,4,1,1,0,0.65555555,0.65555555,228.88889,NaN,practic_1,NaN,NaN,0.0,4.0,30.0
1,0,12,3,1,1,0,0.1,0.1,60.000004,NaN,practic_1,NaN,NaN,0.0,4.0,30.0
1,0,12,2,1,1,0,0.2,0.2,55.555557,NaN,practic_1,NaN,NaN,0.0,4.0,30.0
1,0,12,1,1,1,0,0.2,0.2,55.555557,NaN,practic_1,NaN,NaN,0.0,4.0,30.0
1,0,12,1,1,1,0,0.3,0.3,42.06349,NaN,practic_1,NaN,NaN,0.0,4.0,30.0
1,0,12,4,1,1,0,0.6206349,0.6206349,215.873,NaN,practic_1,NaN,NaN,0.0,4.0,30.0
1,0,12,3,1,1,0,0.2,0.2,100.0,NaN,practic_1,NaN,NaN,0.0,4.0,30.0
1,0,12,2,1,1,0,0.3,0.3,42.06349,NaN,practic_1,NaN,NaN,0.0,4.0,30.0
1,0,11,4,1,1,0,0.6174603,0.6174603,196.50793,NaN,practic_1,NaN,NaN,0.0,4.0,30.0
1,0,11,3,1,1,0,0.3,0.3,70.00001,NaN,practic_1,NaN,NaN,0.0,4.0,30.0
1,0,11,2,1,1,0,0.3,0.3,70.00001,NaN,practic_1,NaN,NaN,0.0,4.0,30.0
1,0,11,1,1,1,0,0.4,0.4,63.492058,NaN,practic_1,NaN,NaN,0.0,4.0,30.0
1,0,11,4,1,1,0,0.6,0.6,200.0,NaN,practic_1,NaN,NaN,0.0,4.0,30.0
1,0,11,3,1,1,0,0.4,0.4,50.0,NaN,practic_1,NaN,NaN,0.0,4.0,30.0
1,0,11,2,1,1,0,0.4,0.4,50.0,NaN,practic_1,NaN,NaN,0.0,4.0,30.0
1,0,11,1,1,1,0,0.1,0.1,100.0,NaN,practic_1,NaN,NaN,0.0,4.0,30.0
1,0,11,4,1,1,0,0.5793651,0.5793651,244.12698,NaN,practic_1,NaN,NaN,0.0,4.0,30.0
1,0,11,3,1,1,0,0.1,0.1,30.000002,NaN,practic_1,NaN,NaN,0.0,4.0,30.0
1,0,11,2,1,1,0,0.1,0.1,30.000002,NaN,practic_1,NaN,NaN,0.0,4.0,30.0
1,0,11,1,1,1,0,0.2,0.2,95.87302,NaN,practic_1,NaN,NaN,0.0,4.0,30.0
1,0,11,4,1,1,0,0.5761905,0.5761905,224.76192,NaN,practic_1,NaN,NaN,0.0,4.0,30.0
1,0,11,3,1,1,0,0.2,0.2,50.0,NaN,practic_1,NaN,NaN,0.0,4.0,30.0
1,0,11,2,1,1,0,0.2,0.2,50.0,NaN,practic_1,NaN,NaN,0.0,4.0,30.0
1,0,11,1,1,1,0,0.3,0.3,75.2381,NaN,practic_1,NaN,NaN,0.0,4.0,30.0
1,0,11,4,1,1,0,0.5984127,0.5984127,200.31746,NaN,practic_1,NaN,NaN,0.0,4.0,30.0
1,0,11,3,1,1,0,0.3,0.3,70.00001,NaN,practic_1,NaN,NaN,0.0,4.0,30.0
1,0,11,2,1,1,0,0.3,0.3,70.00001,NaN,practic_1,NaN,NaN,0.0,4.0,30.0
1,0,11,1,1,1,0,0.4,0.4,59.682537,NaN,practic_1,NaN,NaN,0.0,4.0,30.0
1,0,11,4,1,1,0,0.6206349,0.6206349,195.87302,NaN,practic_1,NaN,NaN,0.0,4.0,30.0
1,0,11,3,1,1,0,0.4,0.4,52.063488,NaN,practic_1,NaN,NaN,0.0,4.0,30.0
1,0,11,2,1,1,0,0.4,0.4,52.063488,NaN,practic_1,NaN,NaN,0.0,4.0,30.0
1,0,11,1,1,1,0,0.1,0.1,100.0,NaN,practic_1,NaN,NaN,0.0,4.0,30.0
1,0,11,4,1,1,0,0.62857145,0.62857145,234.2857,NaN,practic_1,NaN,NaN,0.0,4.0,30.0
1,0,11,3,1,1,0,0.1,0.1,30.000002,NaN,practic_1,NaN,NaN,0.0,4.0,30.0
1,0,11,2,1,1,0,0.1,0.1,30.000002,NaN,practic_1,NaN,NaN,0.0,4.0,30.0
1,0,11,1,1,1,0,0.2,0.2,105.714294,NaN,practic_1,NaN,NaN,0.0,4.0,30.0
1,0,11,4,1,1,0,0.63492066,0.63492066,213.01587,NaN,practic_1,NaN,NaN,0.0,4.0,30.0
1,0,11,3,1,1,0,0.2,0.2,50.0,NaN,practic_1,NaN,NaN,0.0,4.0,30.0
1,0,11,2,1,1,0,0.2,0.2,50.0,NaN,practic_1,NaN,NaN,0.0,4.0,30.0
1,0,11,1,1,1,0,0.3,0.3,86.98413,NaN,practic_1,NaN,NaN,0.0,4.0,30.0
1,0,11,4,1,1,0,0.6079365,0.6079365,198.4127,NaN,practic_1,NaN,NaN,0.0,4.0,30.0
1,0,11,3,1,1,0,0.3,0.3,70.00001,NaN,practic_1,NaN,NaN,0.0,4.0,30.0
1,0,11,2,1,1,0,0.3,0.3,70.00001,NaN,practic_1,NaN,NaN,0.0,4.0,30.0
1,0,11,1,1,1,0,0.4,0.4,61.5873,NaN,practic_1,NaN,NaN,0.0,4.0,30.0
1,0,11,4,1,1,0,0.5809524,0.5809524,203.80952,NaN,practic_1,NaN,NaN,0.0,4.0,30.0
1,0,11,3,1,1,0,0.4,0.4,48.09524,NaN,practic_1,NaN,NaN,0.0,4.0,30.0
1,0,11,2,1,1,0,0.4,0.4,48.09524,NaN,practic_1,NaN,NaN,0.0,4.0,30.0
1,0,11,1,1,1,0,0.1,0.1,100.0,NaN,practic_1,NaN,NaN,0.0,4.0,30.0
1,0,10,4,1,1,0,0.52698416,0.52698416,254.60316,NaN,practic_1,NaN,NaN,0.0,4.0,30.0
1,0,10,3,1,1,0,0.1,0.1,30.000002,NaN,practic_1,NaN,NaN,0.0,4.0,30.0
1,0,10,2,1,1,0,0.1,0.1,30.000002,NaN,practic_1,NaN,NaN,0.0,4.0,30.0
1,0,10,1,1,1,0,0.2,0.2,85.396835,NaN,practic_1,NaN,NaN,0.0,4.0,30.0
1,0,10,4,1,1,0,0.4984127,0.4984127,240.31744,NaN,practic_1,NaN,NaN,0.0,4.0,30.0
1,0,10,3,1,1,0,0.2,0.2,50.0,NaN,practic_1,NaN,NaN,0.0,4.0,30.0
1,0,10,2,1,1,0,0.2,0.2,50.0,NaN,practic_1,NaN,NaN,0.0,4.0,30.0
1,0,10,1,1,1,0,0.3,0.3,59.682537,NaN,practic_1,NaN,NaN,0.0,4.0,30.0
1,0,10,4,1,1,0,0.48253968,0.48253968,223.49208,NaN,practic_1,NaN,NaN,0.0,4.0,30.0
1,0,10,3,1,1,0,0.3,0.3,70.00001,NaN,practic_1,NaN,NaN,0.0,4.0,30.0
1,0,10,2,1,1,0,0.3,0.3,70.00001,NaN,practic_1,NaN,NaN,0.0,4.0,30.0
1,0,10,1,1,1,0,0.4,0.4,36.507935,NaN,practic_1,NaN,NaN,0.0,4.0,30.0
1,0,10,1,1,1,0,0.1,0.1,100.0,NaN,practic_1,NaN,NaN,0.0,4.0,30.0
1,0,10,4,1,1,0,0.46984127,0.46984127,226.03175,NaN,practic_1,NaN,NaN,0.0,4.0,30.0
1,0,10,3,1,1,0,0.4,0.4,36.984127,NaN,practic_1,NaN,NaN,0.0,4.0,30.0
1,0,10,2,1,1,0,0.4,0.4,36.984127,NaN,practic_1,NaN,NaN,0.0,4.0,30.0
1,0,10,4,1,1,0,0.44603175,0.44603175,270.79364,NaN,practic_1,NaN,NaN,0.0,4.0,30.0
1,0,10,3,1,1,0,0.1,0.1,30.000002,NaN,practic_1,NaN,NaN,0.0,4.0,30.0
1,0,10,2,1,1,0,0.1,0.1,30.000002,NaN,practic_1,NaN,NaN,0.0,4.0,30.0
1,0,10,1,1,1,0,0.2,0.2,69.20635,NaN,practic_1,NaN,NaN,0.0,4.0,30.0
1,0,10,4,1,1,0,0.44285715,0.44285715,271.42856,NaN,practic_1,NaN,NaN,0.0,4.0,30.0
1,0,10,3,1,1,0,0.2,0.2,42.857143,NaN,practic_1,NaN,NaN,0.0,4.0,30.0
1,0,10,2,1,1,0,0.2,0.2,42.857143,NaN,practic_1,NaN,NaN,0.0,4.0,30.0
1,0,10,1,1,1,0,0.2,0.2,42.857143,NaN,practic_1,NaN,NaN,0.0,4.0,30.0
1,0,10,4,1,1,0,0.44126984,0.44126984,251.74602,NaN,practic_1,NaN,NaN,0.0,4.0,30.0
1,0,10,3,1,1,0,0.3,0.3,49.417988,NaN,practic_1,NaN,NaN,0.0,4.0,30.0
1,0,10,2,1,1,0,0.3,0.3,49.417988,NaN,practic_1,NaN,NaN,0.0,4.0,30.0
1,0,10,1,1,1,0,0.3,0.3,49.417988,NaN,practic_1,NaN,NaN,0.0,4.0,30.0
1,0,10,4,1,1,0,0.43492064,0.43492064,233.01587,NaN,practic_1,NaN,NaN,0.0,4.0,30.0
1,0,10,3,1,1,0,0.4,0.4,55.661373,NaN,practic_1,NaN,NaN,0.0,4.0,30.0
1,0,10,2,1,1,0,0.4,0.4,55.661373,NaN,practic_1,NaN,NaN,0.0,4.0,30.0
1,0,10,1,1,1,0,0.4,0.4,55.661373,NaN,practic_1,NaN,NaN,0.0,4.0,30.0
1,0,10,4,1,1,0,0.42698413,0.42698413,294.60318,NaN,practic_1,NaN,NaN,0.0,4.0,30.0
1,0,10,3,1,1,0,0.1,0.1,35.13228,NaN,practic_1,NaN,NaN,0.0,4.0,30.0
1,0,10,2,1,1,0,0.1,0.1,35.13228,NaN,practic_1,NaN,NaN,0.0,4.0,30.0
1,0,10,1,1,1,0,0.1,0.1,35.13228,NaN,practic_1,NaN,NaN,0.0,4.0,30.0
1,0,10,4,1,1,0,0.42539683,0.42539683,274.92065,NaN,practic_1,NaN,NaN,0.0,4.0,30.0
1,0,10,3,1,1,0,0.2,0.2,41.693123,NaN,practic_1,NaN,NaN,0.0,4.0,30.0
1,0,10,2,1,1,0,0.2,0.2,41.693123,NaN,practic_1,NaN,NaN,0.0,4.0,30.0
1,0,10,1,1,1,0,0.2,0.2,41.693123,NaN,practic_1,NaN,NaN,0.0,4.0,30.0
1,0,9,4,1,1,0,0.42380953,0.42380953,255.2381,NaN,practic_1,NaN,NaN,0.0,4.0,30.0
1,0,9,3,1,1,0,0.3,0.3,48.253967,NaN,practic_1,NaN,NaN,0.0,4.0,30.0
1,0,9,2,1,1,0,0.3,0.3,48.253967,NaN,practic_1,NaN,NaN,0.0,4.0,30.0
1,0,9,1,1,1,0,0.3,0.3,48.253967,NaN,practic_1,NaN,NaN,0.0,4.0,30.0
1,0,9,4,1,1,0,0.42063493,0.42063493,235.873,NaN,practic_1,NaN,NaN,0.0,4.0,30.0
1,0,9,3,1,1,0,0.4,0.4,54.709,NaN,practic_1,NaN,NaN,0.0,4.0,30.0
1,0,9,2,1,1,0,0.4,0.4,54.709,NaN,practic_1,NaN,NaN,0.0,4.0,30.0
1,0,9,1,1,1,0,0.4,0.4,54.709,NaN,practic_1,NaN,NaN,0.0,4.0,30.0
1,0,9,4,1,1,0,0.41587302,0.41587302,296.82538,NaN,practic_1,NaN,NaN,0.0,4.0,30.0
1,0,9,3,1,1,0,0.1,0.1,34.391533,NaN,practic_1,NaN,NaN,0.0,4.0,30.0
1,0,9,2,1,1,0,0.1,0.1,34.391533,NaN,practic_1,NaN,NaN,0.0,4.0,30.0
1,0,9,1,1,1,0,0.1,0.1,34.391533,NaN,practic_1,NaN,NaN,0.0,4.0,30.0
1,0,9,4,1,1,0,0.41428572,0.41428572,277.14285,NaN,practic_1,NaN,NaN,0.0,4.0,30.0
1,0,9,3,1,1,0,0.2,0.2,40.95238,NaN,practic_1,NaN,NaN,0.0,4.0,30.0
1,0,9,2,1,1,0,0.2,0.2,40.95238,NaN,practic_1,NaN,NaN,0.0,4.0,30.0
1,0,9,1,1,1,0,0.2,0.2,40.95238,NaN,practic_1,NaN,NaN,0.0,4.0,30.0
1,0,9,4,1,1,0,0.41428572,0.41428572,257.14285,NaN,practic_1,NaN,NaN,0.0,4.0,30.0
1,0,9,3,1,1,0,0.3,0.3,47.61905,NaN,practic_1,NaN,NaN,0.0,4.0,30.0
1,0,9,2,1,1,0,0.3,0.3,47.61905,NaN,practic_1,NaN,NaN,0.0,4.0,30.0
1,0,9,1,1,1,0,0.3,0.3,47.61905,NaN,practic_1,NaN,NaN,0.0,4.0,30.0
1,0,9,4,1,1,0,0.41269842,0.41269842,237.46033,NaN,practic_1,NaN,NaN,0.0,4.0,30.0
1,0,9,3,1,1,0,0.4,0.4,54.179893,NaN,practic_1,NaN,NaN,0.0,4.0,30.0
1,0,9,2,1,1,0,0.4,0.4,54.179893,NaN,practic_1,NaN,NaN,0.0,4.0,30.0
1,0,9,1,1,1,0,0.4,0.4,54.179893,NaN,practic_1,NaN,NaN,0.0,4.0,30.0
1,0,9,4,1,1,0,0.40952381,0.40952381,298.0952,NaN,practic_1,NaN,NaN,0.0,4.0,30.0
1,0,9,3,1,1,0,0.1,0.1,33.968254,NaN,practic_1,NaN,NaN,0.0,4.0,30.0
1,0,9,2,1,1,0,0.1,0.1,33.968254,NaN,practic_1,NaN,NaN,0.0,4.0,30.0
1,0,9,1,1,1,0,0.1,0.1,33.968254,NaN,practic_1,NaN,NaN,0.0,4.0,30.0
1,0,9,4,1,1,0,0.40952381,0.40952381,278.0952,NaN,practic_1,NaN,NaN,0.0,4.0,30.0
1,0,9,3,1,1,0,0.2,0.2,40.634922,NaN,practic_1,NaN,NaN,0.0,4.0,30.0
1,0,9,2,1,1,0,0.2,0.2,40.634922,NaN,practic_1,NaN,NaN,0.0,4.0,30.0
1,0,9,1,1,1,0,0.2,0.2,40.634922,NaN,practic_1,NaN,NaN,0.0,4.0,30.0
1,0,9,4,1,1,0,0.40952381,0.40952381,258.0952,NaN,practic_1,NaN,NaN,0.0,4.0,30.0
1,0,9,3,1,1,0,0.3,0.3,47.301586,NaN,practic_1,NaN,NaN,0.0,4.0,30.0
1,0,9,2,1,1,0,0.3,0.3,47.301586,NaN,practic_1,NaN,NaN,0.0,4.0,30.0
1,0,9,1,1,1,0,0.3,0.3,47.301586,NaN,practic_1,NaN,NaN,0.0,4.0,30.0
1,0,9,4,1,1,0,0.40952381,0.40952381,238.09523,NaN,practic_1,NaN,NaN,0.0,4.0,30.0
1,0,9,3,1,1,0,0.4,0.4,53.968258,NaN,practic_1,NaN,NaN,0.0,4.0,30.0
1,0,9,2,1,1,0,0.4,0.4,53.968258,NaN,practic_1,NaN,NaN,0.0,4.0,30.0
1,0,9,1,1,1,0,0.4,0.4,53.968258,NaN,practic_1,NaN,NaN,0.0,4.0,30.0
1,0,8,4,1,1,0,0.4063492,0.4063492,298.7302,NaN,practic_1,NaN,NaN,0.0,4.0,30.0
1,0,8,3,1,1,0,0.1,0.1,33.756615,NaN,practic_1,NaN,NaN,0.0,4.0,30.0
1,0,8,2,1,1,0,0.1,0.1,33.756615,NaN,practic_1,NaN,NaN,0.0,4.0,30.0
1,0,8,1,1,1,0,0.1,0.1,33.756615,NaN,practic_1,NaN,NaN,0.0,4.0,30.0
1,0,8,4,1,1,0,0.4047619,0.4047619,279.0476,NaN,practic_1,NaN,NaN,0.0,4.0,30.0
1,0,8,3,1,1,0,0.2,0.2,40.31746,NaN,practic_1,NaN,NaN,0.0,4.0,30.0
1,0,8,2,1,1,0,0.2,0.2,40.31746,NaN,practic_1,NaN,NaN,0.0,4.0,30.0
1,0,8,1,1,1,0,0.2,0.2,40.31746,NaN,practic_1,NaN,NaN,0.0,4.0,30.0
1,0,8,4,1,1,0,0.4047619,0.4047619,259.0476,NaN,practic_1,NaN,NaN,0.0,4.0,30.0
1,0,8,3,1,1,0,0.3,0.3,46.984127,NaN,practic_1,NaN,NaN,0.0,4.0,30.0
1,0,8,2,1,1,0,0.3,0.3,46.984127,NaN,practic_1,NaN,NaN,0.0,4.0,30.0
1,0,8,1,1,1,0,0.3,0.3,46.984127,NaN,practic_1,NaN,NaN,0.0,4.0,30.0
1,0,8,4,1,1,0,0.4047619,0.4047619,239.04762,NaN,practic_1,NaN,NaN,0.0,4.0,30.0
1,0,8,3,1,1,0,0.4,0.4,53.65079,NaN,practic_1,NaN,NaN,0.0,4.0,30.0
1,0,8,2,1,1,0,0.4,0.4,53.65079,NaN,practic_1,NaN,NaN,0.0,4.0,30.0
1,0,8,1,1,1,0,0.4,0.4,53.65079,NaN,practic_1,NaN,NaN,0.0,4.0,30.0
1,0,8,4,1,1,0,0.4047619,0.4047619,299.0476,NaN,practic_1,NaN,NaN,0.0,4.0,30.0
1,0,8,3,1,1,0,0.1,0.1,33.650795,NaN,practic_1,NaN,NaN,0.0,4.0,30.0
1,0,8,2,1,1,0,0.1,0.1,33.650795,NaN,practic_1,NaN,NaN,0.0,4.0,30.0
1,0,8,1,1,1,0,0.1,0.1,33.650795,NaN,practic_1,NaN,NaN,0.0,4.0,30.0
1,0,8,4,1,1,0,0.4047619,0.4047619,279.0476,NaN,practic_1,NaN,NaN,0.0,4.0,30.0
1,0,8,3,1,1,0,0.2,0.2,40.31746,NaN,practic_1,NaN,NaN,0.0,4.0,30.0
1,0,8,2,1,1,0,0.2,0.2,40.31746,NaN,practic_1,NaN,NaN,0.0,4.0,30.0
1,0,8,1,1,1,0,0.2,0.2,40.31746,NaN,practic_1,NaN,NaN,0.0,4.0,30.0
1,0,8,4,1,1,0,0.4047619,0.4047619,259.0476,NaN,practic_1,NaN,NaN,0.0,4.0,30.0
1,0,8,3,1,1,0,0.3,0.3,46.984127,NaN,practic_1,NaN,NaN,0.0,4.0,30.0
1,0,8,2,1,1,0,0.3,0.3,46.984127,NaN,practic_1,NaN,NaN,0.0,4.0,30.0
1,0,8,1,1,1,0,0.3,0.3,46.984127,NaN,practic_1,NaN,NaN,0.0,4.0,30.0
1,0,8,4,1,1,0,0.4047619,0.4047619,239.04762,NaN,practic_1,NaN,NaN,0.0,4.0,30.0
1,0,8,3,1,1,0,0.4,0.4,53.65079,NaN,practic_1,NaN,NaN,0.0,4.0,30.0
1,0,8,2,1,1,0,0.4,0.4,53.65079,NaN,practic_1,NaN,NaN,0.0,4.0,30.0
1,0,8,1,1,1,0,0.4,0.4,53.65079,NaN,practic_1,NaN,NaN,0.0,4.0,30.0
1,0,8,4,1,1,0,0.4047619,0.4047619,299.0476,NaN,practic_1,NaN,NaN,0.0,4.0,30.0
1,0,8,3,1,1,0,0.1,0.1,33.650795,NaN,practic_1,NaN,NaN,0.0,4.0,30.0
1,0,8,2,1,1,0,0.1,0.1,33.650795,NaN,practic_1,NaN,NaN,0.0,4.0,30.0
1,0,8,1,1,1,0,0.1,0.1,33.650795,NaN,practic_1,NaN,NaN,0.0,4.0,30.0
1,0,8,4,1,1,0,0.4047619,0.4047619,279.0476,NaN,practic_1,NaN,NaN,0.0,4.0,30.0
1,0,8,3,1,1,0,0.2,0.2,40.31746,NaN,practic_1,NaN,NaN,0.0,4.0,30.0
1,0,8,2,1,1,0,0.2,0.2,40.31746,NaN,practic_1,NaN,NaN,0.0,4.0,30.0
1,0,8,1,1,1,0,0.2,0.2,40.31746,NaN,practic_1,NaN,NaN,0.0,4.0,30.0
1,0,7,4,1,1,0,0.4047619,0.4047619,259.0476,NaN,practic_1,NaN,NaN,0.0,4.0,30.0
1,0,7,3,1,1,0,0.3,0.3,46.984127,NaN,practic_1,NaN,NaN,0.0,4.0,30.0
1,0,7,2,1,1,0,0.3,0.3,46.984127,NaN,practic_1,NaN,NaN,0.0,4.0,30.0
1,0,7,1,1,1,0,0.3,0.3,46.984127,NaN,practic_1,NaN,NaN,0.0,4.0,30.0
1,0,7,4,1,1,0,0.4047619,0.4047619,239.04762,NaN,practic_1,NaN,NaN,0.0,4.0,30.0
1,0,7,3,1,1,0,0.4,0.4,53.65079,NaN,practic_1,NaN,NaN,0.0,4.0,30.0
1,0,7,2,1,1,0,0.4,0.4,53.65079,NaN,practic_1,NaN,NaN,0.0,4.0,30.0
1,0,7,1,1,1,0,0.4,0.4,53.65079,NaN,practic_1,NaN,NaN,0.0,4.0,30.0
1,0,7,4,1,1,0,0.4047619,0.4047619,299.0476,NaN,practic_1,NaN,NaN,0.0,4.0,30.0
1,0,7,3,1,1,0,0.1,0.1,33.650795,NaN,practic_1,NaN,NaN,0.0,4.0,30.0
1,0,7,2,1,1,0,0.1,0.1,33.650795,NaN,practic_1,NaN,NaN,0.0,4.0,30.0
1,0,7,1,1,1,0,0.1,0.1,33.650795,NaN,practic_1,NaN,NaN,0.0,4.0,30.0
1,0,7,4,1,1,0,0.4047619,0.4047619,279.0476,NaN,practic_1,NaN,NaN,0.0,4.0,30.0
1,0,7,3,1,1,0,0.2,0.2,40.31746,NaN,practic_1,NaN,NaN,0.0,4.0,30.0
1,0,7,2,1,1,0,0.2,0.2,40.31746,NaN,practic_1,NaN,NaN,0.0,4.0,30.0
1,0,7,1,1,1,0,0.2,0.2,40.31746,NaN,practic_1,NaN,NaN,0.0,4.0,30.0
1,0,7,4,1,1,0,0.4047619,0.4047619,259.0476,NaN,practic_1,NaN,NaN,0.0,4.0,30.0
1,0,7,3,1,1,0,0.3,0.3,46.984127,NaN,practic_1,NaN,NaN,0.0,4.0,30.0
1,0,7,2,1,1,0,0.3,0.3,46.984127,NaN,practic_1,NaN,NaN,0.0,4.0,30.0
1,0,7,1,1,1,0,0.3,0.3,46.984127,NaN,practic_1,NaN,NaN,0.0,4.0,30.0
1,0,7,4,1,1,0,0.4047619,0.4047619,239.04762,NaN,practic_1,NaN,NaN,0.0,4.0,30.0
1,0,7,3,1,1,0,0.4,0.4,53.65079,NaN,practic_1,NaN,NaN,0.0,4.0,30.0
1,0,7,2,1,1,0,0.4,0.4,53.65079,NaN,practic_1,NaN,NaN,0.0,4.0,30.0
1,0,7,1,1,1,0,0.4,0.4,53.65079,NaN,practic_1,NaN,NaN,0.0,4.0,30.0
1,0,7,4,1,1,0,0.4047619,0.4047619,299.0476,NaN,practic_1,NaN,NaN,0.0,4.0,30.0
1,0,7,3,1,1,0,0.1,0.1,33.650795,NaN,practic_1,NaN,NaN,0.0,4.0,30.0
1,0,7,2,1,1,0,0.1,0.1,33.650795,NaN,practic_1,NaN,NaN,0.0,4.0,30.0
1,0,7,1,1,1,0,0.1,0.1,33.650795,NaN,practic_1,NaN,NaN,0.0,4.0,30.0
1,0,7,4,1,1,0,0.4047619,0.4047619,279.0476,NaN,practic_1,NaN,NaN,0.0,4.0,30.0
1,0,7,3,1,1,0,0.2,0.2,40.31746,NaN,practic_1,NaN,NaN,0.0,4.0,30.0
1,0,7,2,1,1,0,0.2,0.2,40.31746,NaN,practic_1,NaN,NaN,0.0,4.0,30.0
1,0,7,1,1,1,0,0.2,0.2,40.31746,NaN,practic_1,NaN,NaN,0.0,4.0,30.0
1,0,7,4,1,1,0,0.4047619,0.4047619,259.0476,NaN,practic_1,NaN,NaN,0.0,4.0,30.0
1,0,7,3,1,1,0,0.3,0.3,46.984127,NaN,practic_1,NaN,NaN,0.0,4.0,30.0
1,0,7,2,1,1,0,0.3,0.3,46.984127,NaN,practic_1,NaN,NaN,0.0,4.0,30.0
1,0,7,1,1,1,0,0.3,0.3,46.984127,NaN,practic_1,NaN,NaN,0.0,4.0,30.0
1,0,7,4,1,1,0,0.4047619,0.4047619,239.04762,NaN,practic_1,NaN,NaN,0.0,4.0,30.0
1,0,7,3,1,1,0,0.4,0.4,53.65079,NaN,practic_1,NaN,NaN,0.0,4.0,30.0
1,0,7,2,1,1,0,0.4,0.4,53.65079,NaN,practic_1,NaN,NaN,0.0,4.0,30.0
1,0,7,1,1,1,0,0.4,0.4,53.65079,NaN,practic_1,NaN,NaN,0.0,4.0,30.0
1,0,6,4,1,1,0,0.4047619,0.4047619,299.0476,NaN,practic_1,NaN,NaN,0.0,4.0,30.0
1,0,6,3,1,1,0,0.1,0.1,33.650795,NaN,practic_1,NaN,NaN,0.0,4.0,30.0
1,0,6,2,1,1,0,0.1,0.1,33.650795,NaN,practic_1,NaN,NaN,0.0,4.0,30.0
1,0,6,1,1,1,0,0.1,0.1,33.650795,NaN,practic_1,NaN,NaN,0.0,4.0,30.0
1,0,6,4,1,1,0,0.4047619,0.4047619,279.0476,NaN,practic_1,NaN,NaN,0.0,4.0,30.0
1,0,6,3,1,1,0,0.2,0.2,40.31746,NaN,practic_1,NaN,NaN,0.0,4.0,30.0
1,0,6,2,1,1,0,0.2,0.2,40.31746,NaN,practic_1,NaN,NaN,0.0,4.0,30.0
1,0,6,1,1,1,0,0.2,0.2,40.31746,NaN,practic_1,NaN,NaN,0.0,4.0,30.0
1,0,6,4,1,1,0,0.4047619,0.4047619,259.0476,NaN,practic_1,NaN,NaN,0.0,4.0,30.0
1,0,6,3,1,1,0,0.3,0.3,46.984127,NaN,practic_1,NaN,NaN,0.0,4.0,30.0
1,0,6,2,1,1,0,0.3,0.3,46.984127,NaN,practic_1,NaN,NaN,0.0,4.0,30.0
1,0,6,1,1,1,0,0.3,0.3,46.984127,NaN,practic_1,NaN,NaN,0.0,4.0,30.0
1,0,6,4,1,1,0,0.4047619,0.4047619,239.04762,NaN,practic_1,NaN,NaN,0.0,4.0,30.0
1,0,6,3,1,1,0,0.4,0.4,53.65079,NaN,practic_1,NaN,NaN,0.0,4.0,30.0
1,0,6,2,1,1,0,0.4,0.4,53.65079,NaN,practic_1,NaN,NaN,0.0,4.0,30.0
1,0,6,1,1,1,0,0.4,0.4,53.65079,NaN,practic_1,NaN,NaN,0.0,4.0,30.0
1,0,6,1,1,1,0,0.1,0.1,33.650795,NaN,practic_1,NaN,NaN,0.0,4.0,30.0
1,0,6,4,1,1,0,0.4047619,0.4047619,299.0476,NaN,practic_1,NaN,NaN,0.0,4.0,30.0
1,0,6,3,1,1,0,0.1,0.1,33.650795,NaN,practic_1,NaN,NaN,0.0,4.0,30.0
1,0,6,2,1,1,0,0.1,0.1,33.650795,NaN,practic_1,NaN,NaN,0.0,4.0,30.0
1,0,6,1,1,1,0,0.2,0.2,40.31746,NaN,practic_1,NaN,NaN,0.0,4.0,30.0
1,0,6,4,1,1,0,0.4047619,0.4047619,279.0476,NaN,practic_1,NaN,NaN,0.0,4.0,30.0
1,0,6,3,1,1,0,0.2,0.2,40.31746,NaN,practic_1,NaN,NaN,0.0,4.0,30.0
1,0,6,2,1,1,0,0.2,0.2,40.31746,NaN,practic_1,NaN,NaN,0.0,4.0,30.0
1,0,6,4,1,1,0,0.4047619,0.4047619,259.0476,NaN,practic_1,NaN,NaN,0.0,4.0,30.0
1,0,6,3,1,1,0,0.3,0.3,46.984127,NaN,practic_1,NaN,NaN,0.0,4.0,30.0
1,0,6,2,1,1,0,0.3,0.3,46.984127,NaN,practic_1,NaN,NaN,0.0,4.0,30.0
1,0,6,1,1,1,0,0.3,0.3,46.984127,NaN,practic_1,NaN,NaN,0.0,4.0,30.0
1,0,6,4,1,1,0,0.4047619,0.4047619,239.04762,NaN,practic_1,NaN,NaN,0.0,4.0,30.0
1,0,6,3,1,1,0,0.4,0.4,53.65079,NaN,practic_1,NaN,NaN,0.0,4.0,30.0
1,0,6,2,1,1,0,0.4,0.4,53.65079,NaN,practic_1,NaN,NaN,0.0,4.0,30.0
1,0,6,1,1,1,0,0.4,0.4,53.65079,NaN,practic_1,NaN,NaN,0.0,4.0,30.0
1,0,6,4,1,1,0,0.4047619,0.4047619,299.0476,NaN,practic_1,NaN,NaN,0.0,4.0,30.0
1,0,6,3,1,1,0,0.1,0.1,33.650795,NaN,practic_1,NaN,NaN,0.0,4.0,30.0
1,0,6,2,1,1,0,0.1,0.1,33.650795,NaN,practic_1,NaN,NaN,0.0,4.0,30.0
1,0,6,1,1,1,0,0.1,0.1,33.650795,NaN,practic_1,NaN,NaN,0.0,4.0,30.0
1,0,6,4,1,1,0,0.4047619,0.4047619,279.0476,NaN,practic_1,NaN,NaN,0.0,4.0,30.0
1,0,6,3,1,1,0,0.2,0.2,40.31746,NaN,practic_1,NaN,NaN,0.0,4.0,30.0
1,0,6,2,1,1,0,0.2,0.2,40.31746,NaN,practic_1,NaN,NaN,0.0,4.0,30.0
1,0,6,1,1,1,0,0.2,0.2,40.31746,NaN,practic_1,NaN,NaN,0.0,4.0,30.0
1,0,5,4,1,1,0,0.4047619,0.4047619,259.0476,NaN,practic_1,NaN,NaN,0.0,4.0,30.0
1,0,5,3,1,1,0,0.3,0.3,46.984127,NaN,practic_1,NaN,NaN,0.0,4.0,30.0
1,0,5,2,1,1,0,0.3,0.3,46.984127,NaN,practic_1,NaN,NaN,0.0,4.0,30.0
1,0,5,1,1,1,0,0.3,0.3,46.984127,NaN,practic_1,NaN,NaN,0.0,4.0,30.0
1,0,5,4,1,1,0,0.4047619,0.4047619,239.04762,NaN,practic_1,NaN,NaN,0.0,4.0,30.0
1,0,5,3,1,1,0,0.4,0.4,53.65079,NaN,practic_1,NaN,NaN,0.0,4.0,30.0
1,0,5,2,1,1,0,0.4,0.4,53.65079,NaN,practic_1,NaN,NaN,0.0,4.0,30.0
1,0,5,1,1,1,0,0.4,0.4,53.65079,NaN,practic_1,NaN,NaN,0.0,4.0,30.0
1,0,5,4,1,1,0,0.4047619,0.4047619,299.0476,NaN,practic_1,NaN,NaN,0.0,4.0,30.0
1,0,5,3,1,1,0,0.1,0.1,33.650795,NaN,practic_1,NaN,NaN,0.0,4.0,30.0
1,0,5,2,1,1,0,0.1,0.1,33.650795,NaN,practic_1,NaN,NaN,0.0,4.0,30.0
1,0,5,1,1,1,0,0.1,0.1,33.650795,NaN,practic_1,NaN,NaN,0.0,4.0,30.0
1,0,5,4,1,1,0,0.4047619,0.4047619,279.0476,NaN,practic_1,NaN,NaN,0.0,4.0,30.0
1,0,5,3,1,1,0,0.2,0.2,40.31746,NaN,practic_1,NaN,NaN,0.0,4.0,30.0
1,0,5,2,1,1,0,0.2,0.2,40.31746,NaN,practic_1,NaN,NaN,0.0,4.0,30.0
1,0,5,1,1,1,0,0.2,0.2,40.31746,NaN,practic_1,NaN,NaN,0.0,4.0,30.0
1,0,5,4,1,1,0,0.4047619,0.4047619,259.0476,NaN,practic_1,NaN,NaN,0.0,4.0,30.0
1,0,5,3,1,1,0,0.3,0.3,46.984127,NaN,practic_1,NaN,NaN,0.0,4.0,30.0
1,0,5,2,1,1,0,0.3,0.3,46.984127,NaN,practic_1,NaN,NaN,0.0,4.0,30.0
1,0,5,1,1,1,0,0.3,0.3,46.984127,NaN,practic_1,NaN,NaN,0.0,4.0,30.0
1,0,5,4,1,1,0,0.4047619,0.4047619,239.04762,NaN,practic_1,NaN,NaN,0.0,4.0,30.0
1,0,5,3,1,1,0,0.4,0.4,53.65079,NaN,practic_1,NaN,NaN,0.0,4.0,30.0
1,0,5,2,1,1,0,0.4,0.4,53.65079,NaN,practic_1,NaN,NaN,0.0,4.0,30.0
1,0,5,1,1,1,0,0.4,0.4,53.65079,NaN,practic_1,NaN,NaN,0.0,4.0,30.0
1,0,5,4,1,1,0,0.4047619,0.4047619,299.0476,NaN,practic_1,NaN,NaN,0.0,4.0,30.0
1,0,5,3,1,1,0,0.1,0.1,33.650795,NaN,practic_1,NaN,NaN,0.0,4.0,30.0
1,0,5,2,1,1,0,0.1,0.1,33.650795,NaN,practic_1,NaN,NaN,0.0,4.0,30.0
1,0,5,1,1,1,0,0.1,0.1,33.650795,NaN,practic_1,NaN,NaN,0.0,4.0,30.0
1,0,5,4,1,1,0,0.4047619,0.4047619,279.0476,NaN,practic_1,NaN,NaN,0.0,4.0,30.0
1,0,5,3,1,1,0,0.2,0.2,40.31746,NaN,practic_1,NaN,NaN,0.0,4.0,30.0
1,0,5,2,1,1,0,0.2,0.2,40.31746,NaN,practic_1,NaN,NaN,0.0,4.0,30.0
1,0,5,1,1,1,0,0.2,0.2,40.31746,NaN,practic_1,NaN,NaN,0.0,4.0,30.0
1,0,5,4,1,1,0,0.4047619,0.4047619,259.0476,NaN,practic_1,NaN,NaN,0.0,4.0,30.0
1,0,5,3,1,1,0,0.3,0.3,46.984127,NaN,practic_1,NaN,NaN,0.0,4.0,30.0
1,0,5,2,1,1,0,0.3,0.3,46.984127,NaN,practic_1,NaN,NaN,0.0,4.0,30.0
1,0,5,1,1,1,0,0.3,0.3,46.984127,NaN,practic_1,NaN,NaN,0.0,4.0,30.0
1,0,5,4,1,1,0,0.4047619,0.4047619,239.04762,NaN,practic_1,NaN,NaN,0.0,4.0,30.0
1,0,5,3,1,1,0,0.4,0.4,53.65079,NaN,practic_1,NaN,NaN,0.0,4.0,30.0
1,0,5,2,1,1,0,0.4,0.4,53.65079,NaN,practic_1,NaN,NaN,0.0,4.0,30.0
1,0,5,1,1,1,0,0.4,0.4,53.65079,NaN,practic_1,NaN,NaN,0.0,4.0,30.0
1,0,4,4,1,1,0,0.4047619,0.4047619,299.0476,NaN,practic_1,NaN,NaN,0.0,4.0,30.0
1,0,4,3,1,1,0,0.1,0.1,33.650795,NaN,practic_1,NaN,NaN,0.0,4.0,30.0
1,0,4,2,1,1,0,0.1,0.1,33.650795,NaN,practic_1,NaN,NaN,0.0,4.0,30.0
1,0,4,1,1,1,0,0.1,0.1,33.650795,NaN,practic_1,NaN,NaN,0.0,4.0,30.0
1,0,4,4,1,1,0,0.4047619,0.4047619,279.0476,NaN,practic_1,NaN,NaN,0.0,4.0,30.0
1,0,4,3,1,1,0,0.2,0.2,40.31746,NaN,practic_1,NaN,NaN,0.0,4.0,30.0
1,0,4,2,1,1,0,0.2,0.2,40.31746,NaN,practic_1,NaN,NaN,0.0,4.0,30.0
1,0,4,1,1,1,0,0.2,0.2,40.31746,NaN,practic_1,NaN,NaN,0.0,4.0,30.0
1,0,4,4,1,1,0,0.4047619,0.4047619,259.0476,NaN,practic_1,NaN,NaN,0.0,4.0,30.0
1,0,4,3,1,1,0,0.3,0.3,46.984127,NaN,practic_1,NaN,NaN,0.0,4.0,30.0
1,0,4,2,1,1,0,0.3,0.3,46.984127,NaN,practic_1,NaN,NaN,0.0,4.0,30.0
1,0,4,1,1,1,0,0.3,0.3,46.984127,NaN,practic_1,NaN,NaN,0.0,4.0,30.0
1,0,4,4,1,1,0,0.4047619,0.4047619,239.04762,NaN,practic_1,NaN,NaN,0.0,4.0,30.0
1,0,4,3,1,1,0,0.4,0.4,53.65079,NaN,practic_1,NaN,NaN,0.0,4.0,30.0
1,0,4,2,1,1,0,0.4,0.4,53.65079,NaN,practic_1,NaN,NaN,0.0,4.0,30.0
1,0,4,1,1,1,0,0.4,0.4,53.65079,NaN,practic_1,NaN,NaN,0.0,4.0,30.0
1,0,4,4,1,1,0,0.4047619,0.4047619,299.0476,NaN,practic_1,NaN,NaN,0.0,4.0,30.0
1,0,4,3,1,1,0,0.1,0.1,33.650795,NaN,practic_1,NaN,NaN,0.0,4.0,30.0
1,0,4,2,1,1,0,0.1,0.1,33.650795,NaN,practic_1,NaN,NaN,0.0,4.0,30.0
1,0,4,1,1,1,0,0.1,0.1,33.650795,NaN,practic_1,NaN,NaN,0.0,4.0,30.0
1,0,4,4,1,1,0,0.4047619,0.4047619,279.0476,NaN,practic_1,NaN,NaN,0.0,4.0,30.0
1,0,4,3,1,1,0,0.2,0.2,40.31746,NaN,practic_1,NaN,NaN,0.0,4.0,30.0
1,0,4,2,1,1,0,0.2,0.2,40.31746,NaN,practic_1,NaN,NaN,0.0,4.0,30.0
1,0,4,1,1,1,0,0.2,0.2,40.31746,NaN,practic_1,NaN,NaN,0.0,4.0,30.0
1,0,4,4,1,1,0,0.4047619,0.4047619,259.0476,NaN,practic_1,NaN,NaN,0.0,4.0,30.0
1,0,4,3,1,1,0,0.3,0.3,46.984127,NaN,practic_1,NaN,NaN,0.0,4.0,30.0
1,0,4,2,1,1,0,0.3,0.3,46.984127,NaN,practic_1,NaN,NaN,0.0,4.0,30.0
1,0,4,1,1,1,0,0.3,0.3,46.984127,NaN,practic_1,NaN,NaN,0.0,4.0,30.0
1,0,4,4,1,1,0,0.4047619,0.4047619,239.04762,NaN,practic_1,NaN,NaN,0.0,4.0,30.0
1,0,4,3,1,1,0,0.4,0.4,53.65079,NaN,practic_1,NaN,NaN,0.0,4.0,30.0
1,0,4,2,1,1,0,0.4,0.4,53.65079,NaN,practic_1,NaN,NaN,0.0,4.0,30.0
1,0,4,1,1,1,0,0.4,0.4,53.65079,NaN,practic_1,NaN,NaN,0.0,4.0,30.0
1,0,4,4,1,1,0,0.4047619,0.4047619,299.0476,NaN,practic_1,NaN,NaN,0.0,4.0,30.0
1,0,4,3,1,1,0,0.1,0.1,33.650795,NaN,practic_1,NaN,NaN,0.0,4.0,30.0
1,0,4,2,1,1,0,0.1,0.1,33.650795,NaN,practic_1,NaN,NaN,0.0,4.0,30.0
1,0,4,1,1,1,0,0.1,0.1,33.650795,NaN,practic_1,NaN,NaN,0.0,4.0,30.0
1,0,4,4,1,1,0,0.4047619,0.4047619,279.0476,NaN,practic_1,NaN,NaN,0.0,4.0,30.0
1,0,4,3,1,1,0,0.2,0.2,40.31746,NaN,practic_1,NaN,NaN,0.0,4.0,30.0
1,0,4,2,1,1,0,0.2,0.2,40.31746,NaN,practic_1,NaN,NaN,0.0,4.0,30.0
1,0,4,1,1,1,0,0.2,0.2,40.31746,NaN,practic_1,NaN,NaN,0.0,4.0,30.0
1,0,3,4,1,1,0,0.4047619,0.4047619,259.0476,NaN,practic_1,NaN,NaN,0.0,4.0,30.0
1,0,3,3,1,1,0,0.3,0.3,46.984127,NaN,practic_1,NaN,NaN,0.0,4.0,30.0
1,0,3,2,1,1,0,0.3,0.3,46.984127,NaN,practic_1,NaN,NaN,0.0,4.0,30.0
1,0,3,1,1,1,0,0.3,0.3,46.984127,NaN,practic_1,NaN,NaN,0.0,4.0,30.0
1,0,3,4,1,1,0,0.4047619,0.4047619,239.04762,NaN,practic_1,NaN,NaN,0.0,4.0,30.0
1,0,3,3,1,1,0,0.4,0.4,53.65079,NaN,practic_1,NaN,NaN,0.0,4.0,30.0
1,0,3,2,1,1,0,0.4,0.4,53.65079,NaN,practic_1,NaN,NaN,0.0,4.0,30.0
1,0,3,1,1,1,0,0.4,0.4,53.65079,NaN,practic_1,NaN,NaN,0.0,4.0,30.0
1,0,3,4,1,1,0,0.4047619,0.4047619,299.0476,NaN,practic_1,NaN,NaN,0.0,4.0,30.0
1,0,3,3,1,1,0,0.1,0.1,33.650795,NaN,practic_1,NaN,NaN,0.0,4.0,30.0
1,0,3,2,1,1,0,0.1,0.1,33.650795,NaN,practic_1,NaN,NaN,0.0,4.0,30.0
1,0,3,1,1,1,0,0.1,0.1,33.650795,NaN,practic_1,NaN,NaN,0.0,4.0,30.0
1,0,3,4,1,1,0,0.4047619,0.4047619,279.0476,NaN,practic_1,NaN,NaN,0.0,4.0,30.0
1,0,3,3,1,1,0,0.2,0.2,40.31746,NaN,practic_1,NaN,NaN,0.0,4.0,30.0
1,0,3,2,1,1,0,0.2,0.2,40.31746,NaN,practic_1,NaN,NaN,0.0,4.0,30.0
1,0,3,1,1,1,0,0.2,0.2,40.31746,NaN,practic_1,NaN,NaN,0.0,4.0,30.0
1,0,3,4,1,1,0,0.4047619,0.4047619,259.0476,NaN,practic_1,NaN,NaN,0.0,4.0,30.0
1,0,3,3,1,1,0,0.3,0.3,46.984127,NaN,practic_1,NaN,NaN,0.0,4.0,30.0
1,0,3,2,1,1,0,0.3,0.3,46.984127,NaN,practic_1,NaN,NaN,0.0,4.0,30.0
1,0,3,1,1,1,0,0.3,0.3,46.984127,NaN,practic_1,NaN,NaN,0.0,4.0,30.0
1,0,3,4,1,1,0,0.4047619,0.4047619,239.04762,NaN,practic_1,NaN,NaN,0.0,4.0,30.0
1,0,3,3,1,1,0,0.4,0.4,53.65079,NaN,practic_1,NaN,NaN,0.0,4.0,30.0
1,0,3,2,1,1,0,0.4,0.4,53.65079,NaN,practic_1,NaN,NaN,0.0,4.0,30.0
1,0,3,1,1,1,0,0.4,0.4,53.65079,NaN,practic_1,NaN,NaN,0.0,4.0,30.0
1,0,3,4,1,1,0,0.4047619,0.4047619,299.0476,NaN,practic_1,NaN,NaN,0.0,4.0,30.0
1,0,3,3,1,1,0,0.1,0.1,33.650795,NaN,practic_1,NaN,NaN,0.0,4.0,30.0
1,0,3,2,1,1,0,0.1,0.1,33.650795,NaN,practic_1,NaN,NaN,0.0,4.0,30.0
1,0,3,1,1,1,0,0.1,0.1,33.650795,NaN,practic_1,NaN,NaN,0.0,4.0,30.0
1,0,3,4,1,1,0,0.4047619,0.4047619,279.0476,NaN,practic_1,NaN,NaN,0.0,4.0,30.0
1,0,3,3,1,1,0,0.2,0.2,40.31746,NaN,practic_1,NaN,NaN,0.0,4.0,30.0
1,0,3,2,1,1,0,0.2,0.2,40.31746,NaN,practic_1,NaN,NaN,0.0,4.0,30.0
1,0,3,1,1,1,0,0.2,0.2,40.31746,NaN,practic_1,NaN,NaN,0.0,4.0,30.0
1,0,3,4,1,1,0,0.4047619,0.4047619,259.0476,NaN,practic_1,NaN,NaN,0.0,4.0,30.0
1,0,3,3,1,1,0,0.3,0.3,46.984127,NaN,practic_1,NaN,NaN,0.0,4.0,30.0
1,0,3,2,1,1,0,0.3,0.3,46.984127,NaN,practic_1,NaN,NaN,0.0,4.0,30.0
1,0,3,1,1,1,0,0.3,0.3,46.984127,NaN,practic_1,NaN,NaN,0.0,4.0,30.0
1,0,3,4,1,1,0,0.4047619,0.4047619,239.04762,NaN,practic_1,NaN,NaN,0.0,4.0,30.0
1,0,3,3,1,1,0,0.4,0.4,53.65079,NaN,practic_1,NaN,NaN,0.0,4.0,30.0
1,0,3,2,1,1,0,0.4,0.4,53.65079,NaN,practic_1,NaN,NaN,0.0,4.0,30.0
1,0,3,1,1,1,0,0.4,0.4,53.65079,NaN,practic_1,NaN,NaN,0.0,4.0,30.0
1,0,2,4,1,1,0,0.4047619,0.4047619,299.0476,NaN,practic_1,NaN,NaN,0.0,4.0,30.0
1,0,2,3,1,1,0,0.1,0.1,33.650795,NaN,practic_1,NaN,NaN,0.0,4.0,30.0
1,0,2,2,1,1,0,0.1,0.1,33.650795,NaN,practic_1,NaN,NaN,0.0,4.0,30.0
1,0,2,1,1,1,0,0.1,0.1,33.650795,NaN,practic_1,NaN,NaN,0.0,4.0,30.0
1,0,2,4,1,1,0,0.4047619,0.4047619,279.0476,NaN,practic_1,NaN,NaN,0.0,4.0,30.0
1,0,2,3,1,1,0,0.2,0.2,40.31746,NaN,practic_1,NaN,NaN,0.0,4.0,30.0
1,0,2,2,1,1,0,0.2,0.2,40.31746,NaN,practic_1,NaN,NaN,0.0,4.0,30.0
1,0,2,1,1,1,0,0.2,0.2,40.31746,NaN,practic_1,NaN,NaN,0.0,4.0,30.0
1,0,2,4,1,1,0,0.4047619,0.4047619,259.0476,NaN,practic_1,NaN,NaN,0.0,4.0,30.0
1,0,2,3,1,1,0,0.3,0.3,46.984127,NaN,practic_1,NaN,NaN,0.0,4.0,30.0
1,0,2,2,1,1,0,0.3,0.3,46.984127,NaN,practic_1,NaN,NaN,0.0,4.0,30.0
1,0,2,1,1,1,0,0.3,0.3,46.984127,NaN,practic_1,NaN,NaN,0.0,4.0,30.0
1,0,2,4,1,1,0,0.4047619,0.4047619,239.04762,NaN,practic_1,NaN,NaN,0.0,4.0,30.0
1,0,2,3,1,1,0,0.4,0.4,53.65079,NaN,practic_1,NaN,NaN,0.0,4.0,30.0
1,0,2,2,1,1,0,0.4,0.4,53.65079,NaN,practic_1,NaN,NaN,0.0,4.0,30.0
1,0,2,1,1,1,0,0.4,0.4,53.65079,NaN,practic_1,NaN,NaN,0.0,4.0,30.0
1,0,2,4,1,1,0,0.4047619,0.4047619,299.0476,NaN,practic_1,NaN,NaN,0.0,4.0,30.0
1,0,2,3,1,1,0,0.1,0.1,33.650795,NaN,practic_1,NaN,NaN,0.0,4.0,30.0
1,0,2,2,1,1,0,0.1,0.1,33.650795,NaN,practic_1,NaN,NaN,0.0,4.0,30.0
1,0,2,1,1,1,0,0.1,0.1,33.650795,NaN,practic_1,NaN,NaN,0.0,4.0,30.0
1,0,2,4,1,1,0,0.4047619,0.4047619,279.0476,NaN,practic_1,NaN,NaN,0.0,4.0,30.0
1,0,2,3,1,1,0,0.2,0.2,40.31746,NaN,practic_1,NaN,NaN,0.0,4.0,30.0
1,0,2,2,1,1,0,0.2,0.2,40.31746,NaN,practic_1,NaN,NaN,0.0,4.0,30.0
1,0,2,1,1,1,0,0.2,0.2,40.31746,NaN,practic_1,NaN,NaN,0.0,4.0,30.0
1,0,2,4,1,1,0,0.4047619,0.4047619,259.0476,NaN,practic_1,NaN,NaN,0.0,4.0,30.0
1,0,2,3,1,1,0,0.3,0.3,46.984127,NaN,practic_1,NaN,NaN,0.0,4.0,30.0
1,0,2,2,1,1,0,0.3,0.3,46.984127,NaN,practic_1,NaN,NaN,0.0,4.0,30.0
1,0,2,1,1,1,0,0.3,0.3,46.984127,NaN,practic_1,NaN,NaN,0.0,4.0,30.0
1,0,2,4,1,1,0,0.4047619,0.4047619,239.04762,NaN,practic_1,NaN,NaN,0.0,4.0,30.0
1,0,2,3,1,1,0,0.4,0.4,53.65079,NaN,practic_1,NaN,NaN,0.0,4.0,30.0
1,0,2,2,1,1,0,0.4,0.4,53.65079,NaN,practic_1,NaN,NaN,0.0,4.0,30.0
1,0,2,1,1,1,0,0.4,0.4,53.65079,NaN,practic_1,NaN,NaN,0.0,4.0,30.0
1,0,2,4,1,1,0,0.4047619,0.4047619,299.0476,NaN,practic_1,NaN,NaN,0.0,4.0,30.0
1,0,2,3,1,1,0,0.1,0.1,33.650795,NaN,practic_1,NaN,NaN,0.0,4.0,30.0
1,0,2,2,1,1,0,0.1,0.1,33.650795,NaN,practic_1,NaN,NaN,0.0,4.0,30.0
1,0,2,1,1,1,0,0.1,0.1,33.650795,NaN,practic_1,NaN,NaN,0.0,4.0,30.0
1,0,2,1,1,1,0,0.2,0.2,40.31746,NaN,practic_1,NaN,NaN,0.0,4.0,30.0
1,0,2,4,1,1,0,0.4047619,0.4047619,279.0476,NaN,practic_1,NaN,NaN,0.0,4.0,30.0
1,0,2,3,1,1,0,0.2,0.2,40.31746,NaN,practic_1,NaN,NaN,0.0,4.0,30.0
1,0,2,2,1,1,0,0.2,0.2,40.31746,NaN,practic_1,NaN,NaN,0.0,4.0,30.0
1,0,1,4,1,1,0,0.4047619,0.4047619,259.0476,NaN,practic_1,NaN,NaN,0.0,4.0,30.0
1,0,1,3,1,1,0,0.3,0.3,46.984127,NaN,practic_1,NaN,NaN,0.0,4.0,30.0
1,0,1,2,1,1,0,0.3,0.3,46.984127,NaN,practic_1,NaN,NaN,0.0,4.0,30.0
1,0,1,1,1,1,0,0.3,0.3,46.984127,NaN,practic_1,NaN,NaN,0.0,4.0,30.0
1,0,1,4,1,1,0,0.4047619,0.4047619,239.04762,NaN,practic_1,NaN,NaN,0.0,4.0,30.0
1,0,1,3,1,1,0,0.4,0.4,53.65079,NaN,practic_1,NaN,NaN,0.0,4.0,30.0
1,0,1,2,1,1,0,0.4,0.4,53.65079,NaN,practic_1,NaN,NaN,0.0,4.0,30.0
1,0,1,1,1,1,0,0.4,0.4,53.65079,NaN,practic_1,NaN,NaN,0.0,4.0,30.0
1,0,1,4,1,1,0,0.4047619,0.4047619,299.0476,NaN,practic_1,NaN,NaN,0.0,4.0,30.0
1,0,1,3,1,1,0,0.1,0.1,33.650795,NaN,practic_1,NaN,NaN,0.0,4.0,30.0
1,0,1,2,1,1,0,0.1,0.1,33.650795,NaN,practic_1,NaN,NaN,0.0,4.0,30.0
1,0,1,1,1,1,0,0.1,0.1,33.650795,NaN,practic_1,NaN,NaN,0.0,4.0,30.0
1,0,1,4,1,1,0,0.4047619,0.4047619,279.0476,NaN,practic_1,NaN,NaN,0.0,4.0,30.0
1,0,1,3,1,1,0,0.2,0.2,40.31746,NaN,practic_1,NaN,NaN,0.0,4.0,30.0
1,0,1,2,1,1,0,0.2,0.2,40.31746,NaN,practic_1,NaN,NaN,0.0,4.0,30.0
1,0,1,1,1,1,0,0.2,0.2,40.31746,NaN,practic_1,NaN,NaN,0.0,4.0,30.0
1,0,1,4,1,1,0,0.4047619,0.4047619,259.0476,NaN,practic_1,NaN,NaN,0.0,4.0,30.0
1,0,1,3,1,1,0,0.3,0.3,46.984127,NaN,practic_1,NaN,NaN,0.0,4.0,30.0
1,0,1,2,1,1,0,0.3,0.3,46.984127,NaN,practic_1,NaN,NaN,0.0,4.0,30.0
1,0,1,1,1,1,0,0.3,0.3,46.984127,NaN,practic_1,NaN,NaN,0.0,4.0,30.0
1,0,1,4,1,1,0,0.4047619,0.4047619,239.04762,NaN,practic_1,NaN,NaN,0.0,4.0,30.0
1,0,1,3,1,1,0,0.4,0.4,53.65079,NaN,practic_1,NaN,NaN,0.0,4.0,30.0
1,0,1,2,1,1,0,0.4,0.4,53.65079,NaN,practic_1,NaN,NaN,0.0,4.0,30.0
1,0,1,1,1,1,0,0.4,0.4,53.65079,NaN,practic_1,NaN,NaN,0.0,4.0,30.0
1,0,1,4,1,1,0,0.4047619,0.4047619,299.0476,NaN,practic_1,NaN,NaN,0.0,4.0,30.0
1,0,1,3,1,1,0,0.1,0.1,33.650795,NaN,practic_1,NaN,NaN,0.0,4.0,30.0
1,0,1,2,1,1,0,0.1,0.1,33.650795,NaN,practic_1,NaN,NaN,0.0,4.0,30.0
1,0,1,1,1,1,0,0.1,0.1,33.650795,NaN,practic_1,NaN,NaN,0.0,4.0,30.0
1,0,1,4,1,1,0,0.4047619,0.4047619,279.0476,NaN,practic_1,NaN,NaN,0.0,4.0,30.0
1,0,1,3,1,1,0,0.2,0.2,40.31746,NaN,practic_1,NaN,NaN,0.0,4.0,30.0
1,0,1,2,1,1,0,0.2,0.2,40.31746,NaN,practic_1,NaN,NaN,0.0,4.0,30.0
1,0,1,1,1,1,0,0.2,0.2,40.31746,NaN,practic_1,NaN,NaN,0.0,4.0,30.0
1,0,1,1,1,1,0,0.3,0.3,46.984127,NaN,practic_1,NaN,NaN,0.0,4.0,30.0
1,0,1,4,1,1,0,0.4047619,0.4047619,259.0476,NaN,practic_1,NaN,NaN,0.0,4.0,30.0
1,0,1,3,1,1,0,0.3,0.3,46.984127,NaN,practic_1,NaN,NaN,0.0,4.0,30.0
1,0,1,2,1,1,0,0.3,0.3,46.984127,NaN,practic_1,NaN,NaN,0.0,4.0,30.0
1,0,1,4,1,1,0,0.4047619,0.4047619,239.04762,NaN,practic_1,NaN,NaN,0.0,4.0,30.0
1,0,1,3,1,1,0,0.4,0.4,53.65079,NaN,practic_1,NaN,NaN,0.0,4.0,30.0
1,0,1,2,1,1,0,0.4,0.4,53.65079,NaN,practic_1,NaN,NaN,0.0,4.0,30.0
1,0,1,1,1,1,0,0.4,0.4,53.65079,NaN,practic_1,NaN,NaN,0.0,4.0,30.0
1,0,0,1,1,1,0,0.1,0.1,33.650795,NaN,practic_1,NaN,NaN,0.0,4.0,30.0
1,0,0,4,1,1,0,0.4047619,0.4047619,299.0476,NaN,practic_1,NaN,NaN,0.0,4.0,30.0
1,0,0,3,1,1,0,0.1,0.1,33.650795,NaN,practic_1,NaN,NaN,0.0,4.0,30.0
1,0,0,2,1,1,0,0.1,0.1,33.650795,NaN,practic_1,NaN,NaN,0.0,4.0,30.0
1,0,0,4,1,1,0,0.4047619,0.4047619,279.0476,NaN,practic_1,NaN,NaN,0.0,4.0,30.0
1,0,0,3,1,1,0,0.2,0.2,40.31746,NaN,practic_1,NaN,NaN,0.0,4.0,30.0
1,0,0,2,1,1,0,0.2,0.2,40.31746,NaN,practic_1,NaN,NaN,0.0,4.0,30.0
1,0,0,1,1,1,0,0.2,0.2,40.31746,NaN,practic_1,NaN,NaN,0.0,4.0,30.0
1,0,0,4,1,1,0,0.4047619,0.4047619,259.0476,NaN,practic_1,NaN,NaN,0.0,4.0,30.0
1,0,0,3,1,1,0,0.3,0.3,46.984127,NaN,practic_1,NaN,NaN,0.0,4.0,30.0
1,0,0,2,1,1,0,0.3,0.3,46.984127,NaN,practic_1,NaN,NaN,0.0,4.0,30.0
1,0,0,1,1,1,0,0.3,0.3,46.984127,NaN,practic_1,NaN,NaN,0.0,4.0,30.0
1,0,0,4,1,1,0,0.4047619,0.4047619,239.04762,NaN,practic_1,NaN,NaN,0.0,4.0,30.0
1,0,0,3,1,1,0,0.3,0.3,140.00002,NaN,practic_1,NaN,NaN,0.0,4.0,30.0
1,0,0,2,1,1,0,0.4,0.4,10.47619,NaN,practic_1,NaN,NaN,0.0,4.0,30.0
1,0,0,1,1,1,0,0.4,0.4,10.47619,NaN,practic_1,NaN,NaN,0.0,4.0,30.0
1,0,0,4,1,1,0,0.4047619,0.4047619,239.04762,NaN,practic_1,NaN,NaN,0.0,4.0,30.0
1,0,0,3,1,1,0,0.4,0.4,60.952385,NaN,practic_1,NaN,NaN,0.0,4.0,30.0
1,0,0,2,1,1,0,0.1,0.1,50.0,NaN,practic_1,NaN,NaN,0.0,4.0,30.0
1,0,0,1,1,1,0,0.1,0.1,50.0,NaN,practic_1,NaN,NaN,0.0,4.0,30.0
1,0,0,4,1,1,0,0.4047619,0.4047619,239.04762,NaN,practic_1,NaN,NaN,0.0,4.0,30.0
1,0,0,3,1,1,0,0.4,0.4,40.95238,NaN,practic_1,NaN,NaN,0.0,4.0,30.0
1,0,0,2,1,1,0,0.2,0.2,60.000004,NaN,practic_1,NaN,NaN,0.0,4.0,30.0
1,0,0,1,1,1,0,0.2,0.2,60.000004,NaN,practic_1,NaN,NaN,0.0,4.0,30.0
1,0,0,4,1,1,0,0.4047619,0.4047619,259.0476,NaN,practic_1,NaN,NaN,0.0,4.0,30.0
1,0,0,3,1,1,0,0.2,0.2,100.0,NaN,practic_1,NaN,NaN,0.0,4.0,30.0
1,0,0,2,1,1,0,0.3,0.3,20.47619,NaN,practic_1,NaN,NaN,0.0,4.0,30.0
1,0,0,1,1,1,0,0.3,0.3,20.47619,NaN,practic_1,NaN,NaN,0.0,4.0,30.0
1,0,0,4,1,1,0,0.4047619,0.4047619,239.04762,NaN,practic_1,NaN,NaN,0.0,4.0,30.0
1,0,0,3,1,1,0,0.3,0.3,140.00002,NaN,practic_1,NaN,NaN,0.0,4.0,30.0
1,0,0,2,1,1,0,0.4,0.4,10.47619,NaN,practic_1,NaN,NaN,0.0,4.0,30.0
1,0,0,1,1,1,0,0.4,0.4,10.47619,NaN,practic_1,NaN,NaN,0.0,4.0,30.0
1,0,0,4,1,1,0,0.4047619,0.4047619,239.04762,NaN,practic_1,NaN,NaN,0.0,4.0,30.0
1,0,0,3,1,1,0,0.4,0.4,60.952385,NaN,practic_1,NaN,NaN,0.0,4.0,30.0
1,0,0,2,1,1,0,0.1,0.1,50.0,NaN,practic_1,NaN,NaN,0.0,4.0,30.0
1,0,0,1,1,1,0,0.1,0.1,50.0,NaN,practic_1,NaN,NaN,0.0,4.0,30.0
1,0,0,4,1,1,0,0.4047619,0.4047619,279.0476,NaN,practic_1,NaN,NaN,0.0,4.0,30.0
1,0,0,3,1,1,0,0.1,0.1,60.000004,NaN,practic_1,NaN,NaN,0.0,4.0,30.0
1,0,0,2,1,1,0,0.2,0.2,30.476192,NaN,practic_1,NaN,NaN,0.0,4.0,30.0
1,0,0,1,1,1,0,0.2,0.2,30.476192,NaN,practic_1,NaN,NaN,0.0,4.0,30.0
